timestamp,gyro_x,gyro_y,gyro_z
1755663691.341044,-0.128,-0.992,-0.029
1755663691.98256,-0.128,-0.993,-0.029
1755663692.1201851,-0.127,-0.99,-0.029
1755663692.249658,-0.124,-0.992,-0.032
1755663692.377728,-0.204,-0.926,0.116
1755663692.503314,-0.116,-1.283,0.104
1755663692.8300958,-0.674,-0.284,-0.216
1755663693.343373,0.801,-1.174,1.077
1755663693.856954,0.875,-1.733,-1.31
1755663694.3712482,1.865,-1.964,0.246
1755663694.8845189,1.464,-0.586,-0.183
1755663695.399244,1.388,0.02,0.764
1755663695.914725,0.303,0.191,0.045
1755663696.4270358,0.113,-0.205,-1.092
1755663696.942067,0.128,0.907,0.906
1755663697.4566,0.858,-1.791,0.484
1755663697.97025,0.827,-0.436,-0.931
1755663698.483938,-0.785,-0.283,0.644
1755663698.997616,-0.892,-0.275,0.412
1755663699.512267,-0.085,-0.159,0.142
1755663700.0263429,-0.745,-0.06,0.107
1755663700.540766,0.269,-0.563,0.942
1755663701.054538,0.864,-0.053,0.937
1755663701.5684,0.989,-0.205,0.391
1755663702.0830998,0.505,-0.598,0.749
1755663702.596868,-0.364,-0.468,0.556
1755663703.110998,-0.401,-0.583,0.684
1755663703.626007,-0.011,-0.756,0.715
1755663704.139717,0.537,-0.564,0.929
1755663704.655031,0.074,-0.622,1.071
1755663705.16914,-0.621,-0.35,0.402
1755663705.6849868,-0.495,-0.539,0.697
1755663706.1993668,-0.058,-0.652,0.759
1755663706.7144132,0.36,-0.497,0.762
1755663707.229381,0.546,-0.624,0.889
1755663707.74431,-0.145,-0.623,0.814
1755663708.260221,-0.596,-0.676,0.425
1755663708.775243,-0.734,-0.596,0.274
1755663709.289759,-0.666,-0.664,0.441
1755663709.804008,-0.57,-0.623,0.523
1755663710.318995,-0.471,-0.633,0.619
1755663710.833798,-0.324,-0.623,0.75
1755663711.349133,-0.084,-0.767,0.719
1755663711.864325,0.26,-0.688,0.758
1755663712.379609,0.435,-0.668,0.814
1755663712.893901,0.204,-0.629,0.673
1755663713.409686,0.516,-0.67,0.755
1755663713.923347,0.165,-0.888,0.665
1755663714.4390972,-0.655,-0.685,0.422
1755663714.953223,-0.85,-0.471,0.023
1755663715.468648,-0.893,-0.123,0.108
1755663715.984774,-0.788,-0.503,0.375
1755663716.498697,-0.777,-0.566,0.711
1755663717.0126998,-0.291,-0.541,0.584
1755663717.52741,0.004,-0.823,0.42
1755663718.0425742,0.391,-1.029,0.474
1755663718.557387,0.431,-0.672,0.694
1755667949.073073,0.113,-0.825,-0.553
1755667949.720163,0.113,-0.825,-0.552
1755667949.845964,0.114,-0.825,-0.552
1755667949.965873,0.113,-0.825,-0.553
1755667950.095605,0.112,-0.825,-0.552
1755667950.229187,0.111,-0.826,-0.553
1755667950.357688,0.112,-0.825,-0.554
1755667950.476362,0.114,-0.825,-0.553
1755667950.6033878,0.112,-0.825,-0.552
1755667950.725464,0.112,-0.826,-0.553
1755667950.841835,0.114,-0.825,-0.553
1755667950.9677272,0.112,-0.826,-0.552
1755667951.087667,0.112,-0.825,-0.552
1755667951.209406,0.114,-0.825,-0.554
1755667951.333885,0.113,-0.824,-0.553
1755667951.457789,0.113,-0.826,-0.552
1755667951.57908,0.114,-0.824,-0.553
1755667951.696167,0.114,-0.825,-0.552
1755667951.81932,0.11,-0.826,-0.552
1755667951.934879,0.111,-0.826,-0.553
1755667952.058045,0.115,-0.825,-0.554
1755667952.184288,0.113,-0.825,-0.552
1755667952.306634,0.11,-0.827,-0.551
1755667952.4251678,0.115,-0.824,-0.554
1755667952.5519948,0.112,-0.826,-0.553
1755667952.683768,0.11,-0.825,-0.552
1755667952.8063302,0.114,-0.824,-0.554
1755667952.934199,0.114,-0.825,-0.553
1755667953.0518022,0.113,-0.821,-0.534
1755667953.181785,0.11,-0.827,-0.577
1755667953.302943,0.113,-0.825,-0.552
1755667953.428583,0.111,-0.826,-0.551
1755667953.554404,0.074,-0.857,-0.325
1755667953.6736078,0.365,-0.94,-0.291
1755667953.806634,0.557,-0.932,-0.09
1755667953.9286542,0.508,-1.116,-0.068
1755667954.050924,0.584,-0.936,0.003
1755667954.1807098,0.452,-1.146,0.097
1755667954.3109171,0.129,-0.836,-0.038
1755667954.423059,0.022,-0.917,0.011
1755667954.539098,-0.196,-0.947,-0.037
1755667954.664708,-0.398,-0.69,-0.093
1755667954.799083,-0.537,-0.714,-0.19
1755667954.919988,-0.628,-0.723,-0.163
1755667955.0432398,-0.66,-0.413,0.029
1755667955.162963,-0.734,-0.14,0.128
1755667955.290755,-0.481,0.053,0.233
1755667955.4122822,-0.021,-0.073,0.863
1755667955.534837,0.284,0.096,1.16
1755667955.6509051,0.425,0.082,0.823
1755667955.7846038,0.781,-0.264,1.128
1755667955.905289,0.922,-0.209,0.944
1755667956.016727,1.034,-0.384,0.877
1755667956.141669,1.357,-0.436,1.432
1755667956.264032,1.395,-0.539,1.296
1755667956.390484,0.74,-0.539,0.765
1755667956.514473,0.154,0.227,0.588
1755667956.638754,-0.256,0.002,-0.164
1755667956.756331,-0.013,-1.194,-0.193
1755667956.879149,-0.098,-2.031,-0.425
1755667957.001194,-0.302,-1.157,-0.244
1755667957.1288168,-0.26,-0.239,-0.421
1755667957.2469828,-0.01,-0.078,0.77
1755667957.3685849,0.237,0.081,0.776
1755667957.495292,0.639,0.159,1.06
1755667957.620907,0.876,-0.224,1.163
1755667957.742228,1.042,-0.125,1.676
1755667957.8650692,0.819,-0.045,1.536
1755667957.9865248,0.96,-0.047,1.303
1755667958.11559,0.248,-0.038,0.587
1755667958.2403462,-0.243,-0.291,0.238
1755667958.372488,-0.516,-0.538,0.182
1755667958.487724,-0.748,-0.784,0.103
1755667958.604754,-0.731,-0.521,0.086
1755667958.724295,-0.562,-0.168,0.384
1755667958.847167,-0.335,-0.037,0.925
1755667958.96634,-0.109,0.01,0.844
1755667959.084056,0.223,0.061,0.938
1755667959.197223,0.566,-0.033,1.178
1755667959.311837,0.717,-0.072,1.527
1755667959.437428,0.702,0.022,1.216
1755667959.5588942,0.589,0.038,1.26
1755667959.683619,0.405,0.031,0.918
1755667959.806127,-0.025,-0.194,0.823
1755667959.922793,-0.138,0.052,0.691
1755667960.046494,-0.262,-0.386,0.741
1755667960.181222,-0.309,-0.393,0.713
1755667960.301046,-0.343,-0.438,0.908
1755667960.420161,-0.159,-0.487,0.895
1755667960.5540109,0.231,-0.751,1.056
1755667960.66432,0.157,-0.64,0.685
1755667960.806772,0.227,-1.142,0.551
1755667960.9302778,0.185,-0.685,0.646
1755667961.055275,0.18,-0.735,0.339
1755667961.168748,0.221,-0.919,0.192
1755667961.3054469,0.259,-1.163,-0.14
1755667961.4205508,0.048,-0.955,0.185
1755667961.545735,0.062,-0.951,0.268
1755667961.664675,0.113,-0.943,0.371
1755667961.783329,0.152,-0.874,0.503
1755667961.893964,-0.04,-0.803,0.618
1755667962.017427,0.104,-0.755,0.669
1755667962.135309,0.099,-0.752,0.676
1755667962.260185,0.112,-0.751,0.673
1755667962.3814662,0.109,-0.782,0.64
1755667962.5033238,0.106,-0.791,0.635
1755667962.635772,0.103,-0.803,0.614
1755667962.752894,0.115,-0.809,0.602
1755667962.868248,0.112,-0.805,0.605
1755667962.994231,0.106,-0.803,0.613
1755667963.116676,0.109,-0.804,0.609
1755667963.237954,0.113,-0.8,0.614
1755667963.353718,0.118,-0.795,0.627
1755667963.474884,0.109,-0.799,0.617
1755667963.5960672,0.114,-0.801,0.61
1755667963.714452,0.109,-0.801,0.614
1755667963.823673,0.109,-0.8,0.615
1755667963.950807,0.11,-0.801,0.613
1755667964.067567,0.111,-0.799,0.614
1755667964.190965,0.108,-0.796,0.619
1755667964.308971,0.111,-0.8,0.616
1755667964.43746,0.109,-0.799,0.618
1755667964.559221,0.109,-0.798,0.617
1755667964.680452,0.109,-0.799,0.618
1755667964.792723,0.113,-0.8,0.615
1755667964.9097888,0.109,-0.797,0.617
1755667965.0327628,0.108,-0.799,0.618
1755667965.1539252,0.11,-0.799,0.615
1755667965.274376,0.108,-0.798,0.619
1755667965.399512,0.11,-0.799,0.617
1755667965.516778,0.109,-0.798,0.619
1755667965.6463249,0.112,-0.798,0.617
1755667965.763583,0.109,-0.8,0.619
1755667965.88566,0.11,-0.799,0.618
1755667966.006261,0.111,-0.799,0.616
1755667966.128475,0.11,-0.799,0.618
1755667966.234748,0.109,-0.798,0.618
1755667966.355705,0.109,-0.798,0.619
1755667966.474684,0.112,-0.799,0.617
1755667966.5935612,0.109,-0.797,0.619
1755667966.715501,0.11,-0.798,0.617
1755667966.835101,0.11,-0.798,0.618
1755667966.953168,0.111,-0.799,0.618
1755667967.071294,0.109,-0.798,0.619
1755667967.192201,0.11,-0.798,0.619
1755667967.3105438,0.111,-0.799,0.617
1755667967.43725,0.109,-0.799,0.619
1755667967.560083,0.11,-0.797,0.618
1755667967.681213,0.11,-0.798,0.618
1755667967.790442,0.111,-0.798,0.617
1755667967.908746,0.108,-0.798,0.62
1755667968.022779,0.111,-0.799,0.617
1755667968.144158,0.11,-0.798,0.617
1755667968.4113631,0.109,-0.799,0.618
1755667968.531199,0.11,-0.799,0.618
1755667968.6399722,0.111,-0.798,0.617
1755667968.7595332,0.109,-0.799,0.618
1755667968.8769689,0.109,-0.798,0.619
1755667968.998049,0.112,-0.799,0.617
1755667969.116274,0.109,-0.799,0.618
1755667969.253852,0.11,-0.799,0.619
1755667969.3721752,0.111,-0.798,0.617
1755667969.489984,0.11,-0.798,0.618
1755667969.609511,0.109,-0.798,0.618
1755667969.7255402,0.11,-0.799,0.618
1755667969.839803,0.11,-0.799,0.617
1755667969.961432,0.11,-0.799,0.618
1755667970.088872,0.109,-0.798,0.618
1755667970.206128,0.111,-0.798,0.617
1755667970.324436,0.11,-0.799,0.617
1755667970.435456,0.109,-0.797,0.619
1755667970.5557802,0.11,-0.799,0.616
1755667970.664653,0.111,-0.799,0.617
1755667970.774539,0.109,-0.798,0.618
1755667970.892712,0.11,-0.799,0.617
1755667971.0024168,0.11,-0.8,0.616
1755667971.1114628,0.109,-0.799,0.618
1755667971.225962,0.11,-0.799,0.618
1755667971.345056,0.111,-0.798,0.616
1755667971.463687,0.109,-0.798,0.618
1755667971.587061,0.109,-0.798,0.617
1755667971.7018912,0.112,-0.799,0.617
1755667971.8221068,0.109,-0.798,0.616
1755667971.9836202,0.109,-0.799,0.617
1755667972.107218,0.11,-0.799,0.616
1755667972.225864,0.111,-0.799,0.615
1755667972.331291,0.109,-0.797,0.615
1755667972.447634,0.11,-0.799,0.615
1755667972.5759082,0.11,-0.8,0.614
1755667972.694152,0.109,-0.798,0.615
1755667972.8131,0.109,-0.798,0.615
1755667972.931937,0.11,-0.8,0.614
1755667973.041584,0.11,-0.799,0.613
1755667973.163778,0.109,-0.798,0.615
1755667973.282616,0.109,-0.799,0.613
1755667973.39753,0.109,-0.8,0.613
1755667973.524904,0.11,-0.798,0.614
1755667973.6458392,0.11,-0.798,0.614
1755667973.754088,0.11,-0.799,0.612
1755667973.876798,0.11,-0.799,0.614
1755667973.9966028,0.11,-0.799,0.614
1755667974.1131752,0.109,-0.799,0.615
1755667974.222392,0.11,-0.799,0.614
1755667974.335706,0.108,-0.799,0.615
1755667974.451852,0.11,-0.799,0.614
1755667974.573142,0.109,-0.799,0.614
1755667974.690864,0.11,-0.798,0.613
1755667974.810789,0.108,-0.798,0.615
1755667974.9334478,0.11,-0.8,0.613
1755667975.051368,0.111,-0.799,0.614
1755667975.166404,0.11,-0.8,0.617
1755667975.283815,0.109,-0.798,0.615
1755667975.396642,0.11,-0.798,0.615
1755667975.510282,0.11,-0.799,0.614
1755667975.627246,0.11,-0.798,0.615
1755667975.749345,0.11,-0.798,0.615
1755667975.866125,0.109,-0.799,0.615
1755667975.9866638,0.109,-0.798,0.616
1755667976.1101718,0.11,-0.798,0.615
1755667976.2333188,0.109,-0.799,0.615
1755667976.355923,0.109,-0.799,0.614
1755667976.48327,0.109,-0.799,0.615
1755667976.603732,0.11,-0.799,0.614
1755667976.7183528,0.11,-0.799,0.616
1755667976.8410308,0.109,-0.799,0.615
1755667976.956767,0.109,-0.798,0.614
1755667977.0689988,0.11,-0.798,0.615
1755667977.196262,0.11,-0.799,0.614
1755667977.320769,0.11,-0.799,0.613
1755667977.4410062,0.11,-0.798,0.613
1755667977.565265,0.109,-0.798,0.615
1755667977.679095,0.111,-0.799,0.613
1755667977.799447,0.11,-0.798,0.613
1755667977.9201431,0.109,-0.799,0.614
1755667978.0415,0.109,-0.8,0.614
1755667978.1539211,0.11,-0.798,0.614
1755667978.273603,0.109,-0.799,0.614
1755667978.387928,0.109,-0.799,0.615
1755667978.519822,0.11,-0.798,0.614
1755667978.642071,0.111,-0.798,0.614
1755667978.7589078,0.108,-0.8,0.616
1755667978.8692522,0.109,-0.799,0.615
1755667978.989492,0.11,-0.799,0.615
1755667979.111124,0.109,-0.798,0.615
1755667979.2241752,0.11,-0.799,0.615
1755667979.3444831,0.109,-0.799,0.614
1755667979.453894,0.11,-0.798,0.615
1755667979.571682,0.109,-0.798,0.616
1755667979.685666,0.11,-0.799,0.615
1755667979.816948,0.111,-0.799,0.615
1755667979.92478,0.109,-0.799,0.616
1755667980.03931,0.109,-0.798,0.615
1755667980.147436,0.11,-0.798,0.615
1755667980.269953,0.11,-0.798,0.616
1755667980.382027,0.109,-0.798,0.616
1755667980.505674,0.111,-0.798,0.616
1755667980.61449,0.11,-0.798,0.616
1755667980.72639,0.11,-0.798,0.617
1755667980.845171,0.11,-0.798,0.617
1755667980.967614,0.11,-0.798,0.616
1755667981.082266,0.109,-0.797,0.617
1755667981.1998022,0.111,-0.797,0.616
1755667981.31127,0.11,-0.799,0.617
1755667981.423817,0.109,-0.798,0.617
1755667981.544511,0.11,-0.799,0.617
1755667981.672339,0.111,-0.8,0.616
1755667981.7846951,0.11,-0.799,0.619
1755667981.912639,0.11,-0.799,0.617
1755667982.050986,0.11,-0.798,0.617
1755667982.167391,0.109,-0.796,0.617
1755667982.2892,0.109,-0.798,0.618
1755667982.4006588,0.11,-0.799,0.618
1755667982.516299,0.109,-0.798,0.619
1755667982.632206,0.11,-0.798,0.617
1755667982.7646852,0.11,-0.799,0.616
1755667982.889499,0.11,-0.798,0.618
1755667983.005832,0.11,-0.799,0.617
1755667983.1225631,0.11,-0.798,0.617
1755667983.234887,0.11,-0.799,0.618
1755667983.355207,0.111,-0.799,0.617
1755667983.472667,0.108,-0.796,0.621
1755667983.597776,0.111,-0.8,0.615
1755667983.719747,0.112,-0.798,0.616
1755667983.8383071,0.108,-0.797,0.619
1755667983.956766,0.109,-0.798,0.618
1755667984.0780852,0.113,-0.8,0.615
1755667984.193922,0.108,-0.797,0.62
1755667984.3139,0.109,-0.798,0.619
1755667984.424122,0.111,-0.799,0.616
1755667984.575924,0.111,-0.799,0.617
1755667984.6897411,0.109,-0.797,0.621
1755667984.796983,0.11,-0.798,0.617
1755667984.914298,0.112,-0.8,0.617
1755667985.032041,0.109,-0.798,0.62
1755667985.138473,0.11,-0.799,0.618
1755667985.2570932,0.111,-0.799,0.617
1755667985.372788,0.11,-0.798,0.617
1755667985.488204,0.109,-0.798,0.62
1755667985.6034172,0.111,-0.798,0.617
1755667985.710446,0.109,-0.798,0.618
1755667985.817722,0.11,-0.798,0.619
1755667985.93639,0.111,-0.798,0.618
1755667986.064424,0.111,-0.798,0.617
1755667986.177596,0.109,-0.798,0.619
1755667986.292943,0.11,-0.799,0.618
1755667986.413764,0.111,-0.799,0.618
1755667986.527667,0.109,-0.798,0.618
1755667986.651626,0.11,-0.798,0.618
1755667986.7684429,0.11,-0.798,0.618
1755667986.892643,0.11,-0.798,0.618
1755667987.006424,0.109,-0.798,0.619
1755667987.1394382,0.111,-0.798,0.618
1755667987.2550662,0.11,-0.798,0.617
1755667987.372782,0.11,-0.798,0.617
1755667987.484702,0.105,-0.8,0.622
1755667987.596555,0.115,-0.801,0.615
1755667987.711396,0.108,-0.796,0.619
1755667987.830656,0.106,-0.797,0.621
1755667987.943021,0.113,-0.799,0.615
1755667988.0531042,0.111,-0.799,0.617
1755667988.174869,0.109,-0.798,0.62
1755667988.283445,0.109,-0.798,0.618
1755667988.396031,0.111,-0.799,0.616
1755667988.5210729,0.11,-0.799,0.619
1755667988.6284711,0.111,-0.799,0.618
1755667988.757926,0.111,-0.799,0.618
1755667988.905021,0.11,-0.798,0.617
1755667989.008488,0.108,-0.798,0.619
1755667989.115162,0.111,-0.799,0.616
1755667989.228118,0.109,-0.798,0.619
1755667989.350386,0.111,-0.798,0.617
1755667989.460917,0.108,-0.798,0.619
1755667989.572982,0.112,-0.799,0.616
1755667989.691909,0.11,-0.797,0.619
1755667989.802318,0.111,-0.798,0.617
1755667989.920928,0.11,-0.798,0.617
1755667990.036154,0.11,-0.798,0.617
1755667990.148443,0.11,-0.798,0.619
1755667990.259378,0.11,-0.798,0.616
1755667990.373659,0.11,-0.798,0.617
1755667990.481688,0.108,-0.798,0.619
1755667990.59011,0.11,-0.798,0.618
1755667990.6995258,0.11,-0.799,0.618
1755667990.812139,0.108,-0.797,0.618
1755667990.927865,0.112,-0.799,0.617
1755667991.041064,0.11,-0.785,0.615
1755667991.151777,0.109,-0.802,0.621
1755667991.265416,0.111,-0.797,0.614
1755667991.380215,0.11,-0.8,0.618
1755667991.494748,0.111,-0.798,0.616
1755667991.602375,0.108,-0.797,0.62
1755667991.714067,0.11,-0.798,0.618
1755667991.831818,0.11,-0.797,0.617
1755667991.954409,0.109,-0.803,0.622
1755667992.0614989,0.11,-0.798,0.616
1755667992.182538,0.109,-0.797,0.618
1755667992.309315,0.112,-0.8,0.615
1755667992.423182,0.109,-0.798,0.617
1755667992.534098,0.11,-0.798,0.618
1755667992.651039,0.109,-0.798,0.618
1755667992.7616682,0.109,-0.798,0.617
1755667992.881545,0.109,-0.798,0.617
1755667992.992903,0.11,-0.798,0.616
1755667993.1180742,0.11,-0.798,0.616
1755667993.2379751,0.109,-0.798,0.616
1755667993.3616068,0.11,-0.799,0.615
1755667993.474189,0.11,-0.797,0.615
1755667993.587308,0.11,-0.798,0.614
1755667993.702827,0.109,-0.799,0.615
1755667993.8572931,0.11,-0.798,0.614
1755667993.969772,0.109,-0.798,0.615
1755667994.101644,0.109,-0.799,0.615
1755667994.244014,0.11,-0.798,0.615
1755667994.364467,0.111,-0.798,0.614
1755667994.474089,0.11,-0.799,0.615
1755667994.586891,0.109,-0.8,0.615
1755667994.70735,0.109,-0.799,0.615
1755667994.814369,0.109,-0.793,0.612
1755667994.9385788,0.109,-0.798,0.615
1755667995.0550468,0.109,-0.799,0.614
1755667995.179142,0.109,-0.798,0.615
1755667995.305917,0.11,-0.798,0.615
1755667995.414902,0.11,-0.799,0.615
1755667995.525216,0.11,-0.798,0.615
1755667995.636457,0.109,-0.799,0.615
1755667995.746909,0.109,-0.799,0.615
1755667995.854421,0.108,-0.799,0.615
1755667995.967595,0.11,-0.798,0.616
1755667996.087509,0.109,-0.798,0.615
1755667996.198157,0.11,-0.798,0.616
1755667996.306957,0.11,-0.798,0.615
1755667996.435643,0.109,-0.799,0.617
1755667996.565184,0.11,-0.799,0.616
1755667996.681984,0.11,-0.799,0.616
1755667996.8102589,0.109,-0.798,0.617
1755667996.917838,0.109,-0.798,0.617
1755667997.023927,0.11,-0.798,0.616
1755667997.137043,0.109,-0.799,0.617
1755667997.256968,0.11,-0.798,0.616
1755667997.372619,0.11,-0.797,0.616
1755667997.486669,0.109,-0.798,0.618
1755667997.6011431,0.109,-0.798,0.618
1755667997.718635,0.11,-0.799,0.616
1755667997.833753,0.109,-0.798,0.616
1755667997.951862,0.11,-0.798,0.617
1755667998.061769,0.11,-0.798,0.617
1755667998.178648,0.109,-0.799,0.616
1755667998.298639,0.109,-0.798,0.618
1755667998.406976,0.11,-0.799,0.617
1755667998.521451,0.11,-0.798,0.616
1755667998.642796,0.11,-0.798,0.617
1755667998.765579,0.109,-0.798,0.618
1755667998.8842251,0.11,-0.799,0.616
1755667998.99774,0.11,-0.798,0.617
1755667999.11998,0.109,-0.798,0.617
1755667999.233921,0.11,-0.798,0.617
1755667999.358478,0.11,-0.798,0.617
1755667999.498107,0.108,-0.799,0.619
1755667999.63579,0.11,-0.797,0.617
1755667999.755815,0.111,-0.798,0.616
1755667999.8662028,0.108,-0.798,0.618
1755667999.993561,0.11,-0.799,0.617
1755668000.118229,0.11,-0.798,0.617
1755668000.230301,0.11,-0.798,0.617
1755668000.3487518,0.109,-0.798,0.617
1755668000.470091,0.11,-0.798,0.617
1755668000.585397,0.11,-0.798,0.617
1755668000.701872,0.109,-0.798,0.618
1755668000.824527,0.11,-0.798,0.617
1755668000.944504,0.111,-0.798,0.617
1755668001.0592158,0.11,-0.798,0.617
1755668001.1768682,0.11,-0.799,0.617
1755668001.290067,0.111,-0.799,0.617
1755668001.4009411,0.11,-0.799,0.617
1755668001.509825,0.11,-0.797,0.618
1755668001.629998,0.11,-0.799,0.617
1755668001.744877,0.11,-0.799,0.617
1755668001.856564,0.11,-0.798,0.617
1755668001.972961,0.109,-0.799,0.618
1755668002.107093,0.111,-0.798,0.616
1755668002.22515,0.11,-0.798,0.618
1755668002.337652,0.109,-0.798,0.618
1755668002.456059,0.109,-0.798,0.617
1755668002.568131,0.11,-0.798,0.617
1755668002.693326,0.109,-0.798,0.618
1755668002.8117728,0.11,-0.798,0.618
1755668002.935274,0.111,-0.798,0.617
1755668003.093083,0.11,-0.797,0.618
1755668003.215246,0.109,-0.799,0.619
1755668003.336106,0.111,-0.799,0.617
1755668003.452584,0.11,-0.798,0.618
1755668003.577028,0.11,-0.798,0.618
1755668003.708033,0.11,-0.799,0.617
1755668003.828348,0.111,-0.798,0.617
1755668003.9479492,0.109,-0.798,0.619
1755668004.058532,0.109,-0.799,0.618
1755668004.187297,0.111,-0.798,0.617
1755668004.302351,0.11,-0.799,0.619
1755668004.411773,0.11,-0.798,0.618
1755668004.532681,0.11,-0.798,0.617
1755668004.763662,0.11,-0.799,0.618
1755668004.886772,0.11,-0.798,0.618
1755668005.0028422,0.11,-0.798,0.617
1755668005.125122,0.11,-0.798,0.618
1755668005.248186,0.109,-0.798,0.618
1755668005.368247,0.11,-0.798,0.619
1755668005.4992151,0.11,-0.798,0.616
1755668005.611551,0.109,-0.798,0.618
1755668005.7272708,0.11,-0.797,0.618
1755668005.846739,0.11,-0.798,0.618
1755668005.9702358,0.111,-0.798,0.618
1755668006.094092,0.109,-0.798,0.617
1755668006.210853,0.11,-0.798,0.618
1755668006.3188329,0.111,-0.798,0.617
1755668006.42743,0.109,-0.799,0.618
1755668006.543679,0.111,-0.798,0.617
1755668006.666506,0.109,-0.798,0.617
1755668006.781282,0.11,-0.798,0.617
1755668006.901608,0.109,-0.799,0.617
1755668007.023063,0.109,-0.799,0.617
1755668007.149429,0.111,-0.799,0.617
1755668007.273943,0.11,-0.799,0.617
1755668007.3987358,0.11,-0.799,0.618
1755668007.540918,0.11,-0.798,0.617
1755668007.663125,0.11,-0.799,0.617
1755668007.7822258,0.11,-0.799,0.618
1755668007.902464,0.11,-0.799,0.617
1755668008.023278,0.111,-0.798,0.617
1755668008.142593,0.111,-0.797,0.617
1755668008.269747,0.11,-0.798,0.617
1755668008.3874052,0.11,-0.798,0.617
1755668008.516276,0.11,-0.799,0.617
1755668008.636279,0.109,-0.798,0.618
1755668008.750692,0.111,-0.798,0.617
1755668008.871804,0.109,-0.798,0.617
1755668009.002321,0.11,-0.798,0.616
1755668009.121416,0.112,-0.799,0.616
1755668009.2359838,0.105,-0.799,0.622
1755668009.3523352,0.109,-0.799,0.617
1755668009.470059,0.112,-0.799,0.615
1755668009.574715,0.11,-0.798,0.617
1755668009.693254,0.107,-0.798,0.619
1755668009.806187,0.113,-0.8,0.615
1755668009.938682,0.11,-0.799,0.617
1755668807.435403,0.009,-0.998,0.102
1755668807.7268438,0.008,-0.998,0.102
1755668807.853271,0.022,-1.0,0.101
1755668807.982357,0.008,-0.998,0.102
1755668808.099015,0.009,-0.998,0.102
1755668808.226262,0.009,-0.998,0.102
1755668808.353227,0.009,-0.998,0.102
1755668808.473456,0.009,-0.998,0.102
1755668808.5925262,0.008,-0.998,0.101
1755668808.7118368,0.008,-0.998,0.102
1755668808.836648,0.008,-0.998,0.102
1755668808.956924,0.008,-0.998,0.102
1755668809.074852,0.009,-0.998,0.102
1755668809.189954,0.008,-0.999,0.102
1755668809.311195,0.009,-0.997,0.102
1755668809.429688,0.009,-0.998,0.102
1755668809.554374,0.008,-0.997,0.102
1755668809.681412,0.01,-0.998,0.101
1755668809.8075452,0.007,-0.998,0.102
1755668809.9336882,0.009,-0.997,0.102
1755668810.053799,0.009,-0.998,0.102
1755668810.173833,0.008,-0.997,0.102
1755668810.2959092,0.008,-0.998,0.102
1755668810.417352,0.008,-0.997,0.102
1755668810.537863,0.01,-0.998,0.101
1755668810.656839,0.007,-0.998,0.102
1755668810.776286,0.009,-0.998,0.102
1755668810.89553,0.007,-0.998,0.102
1755668811.012819,0.009,-0.998,0.101
1755668811.137616,0.008,-0.998,0.102
1755668811.259304,0.008,-0.998,0.102
1755668811.378436,0.008,-0.998,0.102
1755668811.501803,0.009,-0.998,0.101
1755668811.625578,0.009,-0.998,0.101
1755668811.756373,0.009,-0.997,0.102
1755668811.9101288,0.01,-0.999,0.102
1755668812.026897,0.008,-0.999,0.102
1755668812.14626,0.01,-0.998,0.101
1755668812.26209,0.008,-0.998,0.102
1755668812.3820632,0.009,-0.997,0.102
1755668812.5036402,0.008,-0.998,0.102
1755668812.626683,0.009,-0.997,0.102
1755668812.745512,0.008,-0.998,0.102
1755668812.873158,0.008,-0.997,0.101
1755668812.985976,0.011,-0.997,0.102
1755668813.109566,0.008,-0.998,0.102
1755668813.234551,0.01,-0.997,0.101
1755668813.3562582,0.007,-0.998,0.102
1755668813.477536,0.01,-0.998,0.102
1755668813.58952,0.008,-0.997,0.101
1755668813.704421,0.008,-0.998,0.101
1755668813.819647,0.009,-0.998,0.103
1755668813.9376929,0.01,-0.997,0.102
1755668814.053653,0.007,-0.999,0.103
1755668814.172499,0.011,-0.997,0.102
1755668814.286029,0.009,-0.998,0.101
1755668814.395989,0.008,-0.998,0.101
1755668814.517244,0.007,-0.997,0.102
1755668814.636228,0.009,-0.997,0.101
1755668814.760834,0.008,-0.998,0.101
1755668814.885987,0.009,-0.998,0.101
1755668815.004603,0.008,-0.997,0.102
1755668815.121613,0.008,-0.998,0.101
1755668815.242205,0.01,-0.998,0.101
1755668815.360353,0.01,-0.998,0.101
1755668815.474047,0.008,-0.998,0.102
1755668815.592747,0.008,-0.998,0.102
1755668815.708865,0.009,-0.997,0.102
1755668815.827659,0.01,-0.997,0.101
1755668815.939008,0.008,-0.997,0.102
1755668816.05186,0.008,-0.997,0.102
1755668816.179577,0.009,-0.997,0.102
1755668816.305878,0.008,-0.997,0.101
1755668816.433488,0.008,-0.998,0.101
1755668816.561047,0.008,-0.997,0.102
1755668816.675265,0.009,-0.998,0.101
1755668816.79028,0.009,-0.998,0.102
1755668816.909813,0.009,-0.998,0.102
1755668817.028202,0.009,-0.998,0.101
1755668817.154301,0.009,-0.997,0.101
1755668817.2719738,0.008,-0.997,0.102
1755668817.402345,0.009,-0.997,0.101
1755668817.518687,0.008,-0.998,0.102
1755668817.6378849,0.008,-0.998,0.102
1755668817.745855,0.009,-0.997,0.102
1755668817.864437,0.009,-0.998,0.102
1755668817.980931,0.008,-0.998,0.101
1755668818.1089,0.009,-0.998,0.102
1755668818.224399,0.008,-0.998,0.101
1755668818.3414,0.008,-0.998,0.102
1755668818.460888,0.009,-0.997,0.102
1755668818.579233,0.008,-0.998,0.101
1755668818.6921852,0.009,-0.997,0.102
1755668818.814368,0.009,-0.998,0.101
1755668818.9284182,0.008,-0.998,0.102
1755668819.048272,0.009,-0.998,0.101
1755668819.166674,0.008,-0.998,0.102
1755668819.285554,0.009,-0.997,0.102
1755668819.39975,0.009,-0.997,0.102
1755668819.5206358,0.009,-0.997,0.101
1755668819.6374578,0.008,-0.997,0.102
1755668819.749799,0.009,-0.997,0.102
1755668819.876978,0.009,-0.998,0.102
1755668819.991997,0.009,-0.997,0.102
1755668820.12308,0.009,-0.997,0.101
1755668820.243037,0.008,-0.998,0.102
1755668820.3568692,0.008,-0.998,0.102
1755668820.467693,0.009,-0.998,0.101
1755668820.594347,0.008,-0.998,0.102
1755668820.711863,0.009,-0.998,0.102
1755668820.829965,0.008,-0.997,0.102
1755668820.9506218,0.008,-0.998,0.102
1755668821.061911,0.009,-0.999,0.102
1755668821.179294,0.009,-0.999,0.102
1755668821.295862,0.007,-0.998,0.102
1755668821.414314,0.008,-0.998,0.102
1755668821.526509,0.008,-0.998,0.103
1755668821.642847,0.009,-0.998,0.102
1755668821.7563798,0.009,-0.997,0.102
1755668821.87157,0.008,-0.998,0.102
1755668821.985556,0.008,-0.998,0.102
1755668822.097883,0.009,-0.997,0.102
1755668822.219733,0.008,-0.999,0.102
1755668822.3464289,0.009,-0.998,0.101
1755668822.462079,0.009,-0.997,0.101
1755668822.576244,0.009,-0.998,0.102
1755668822.6869278,0.01,-0.998,0.101
1755668822.845984,0.007,-0.998,0.103
1755668822.96197,0.01,-0.997,0.101
1755668823.082319,0.008,-0.997,0.102
1755668823.195915,0.008,-0.998,0.102
1755668823.312383,0.009,-0.997,0.102
1755668823.437435,0.009,-0.998,0.101
1755668823.554802,0.008,-0.998,0.102
1755668823.667111,0.008,-0.997,0.101
1755668823.782911,0.009,-0.998,0.101
1755668823.893883,0.008,-0.997,0.102
1755668824.010968,0.009,-0.997,0.102
1755668824.129725,0.008,-0.997,0.102
1755668824.2398798,0.008,-0.998,0.101
1755668824.350121,0.008,-0.998,0.102
1755668824.4692118,0.008,-0.999,0.102
1755668824.583097,0.008,-0.998,0.101
1755668824.698627,0.009,-0.999,0.102
1755668824.830079,0.008,-0.997,0.102
1755668824.949483,0.008,-0.998,0.102
1755668825.0580952,0.008,-0.998,0.102
1755668825.178264,0.009,-0.998,0.103
1755668825.3069718,0.01,-0.999,0.102
1755668825.422796,0.008,-0.998,0.103
1755668825.555763,0.011,-0.998,0.102
1755668825.6883042,0.008,-0.998,0.102
1755668825.797877,0.008,-0.998,0.102
1755668825.91788,0.008,-0.998,0.102
1755668826.0310678,0.009,-0.998,0.102
1755668826.1482549,0.009,-0.998,0.102
1755668826.269423,0.009,-0.999,0.102
1755668826.385322,0.009,-0.998,0.102
1755668826.495104,0.008,-0.998,0.103
1755668826.617049,0.009,-0.998,0.102
1755668826.726686,0.008,-0.998,0.102
1755668826.84586,0.009,-0.998,0.102
1755668826.965502,0.008,-0.998,0.102
1755668827.0782678,0.008,-0.997,0.102
1755668827.207162,0.008,-0.999,0.103
1755668827.322871,0.009,-0.998,0.102
1755668827.44355,0.007,-0.998,0.102
1755668827.5651,0.009,-0.999,0.102
1755668827.683725,0.008,-0.999,0.102
1755668827.793775,0.009,-0.997,0.102
1755668827.907957,0.007,-0.998,0.102
1755668828.02654,0.008,-0.998,0.102
1755668828.14213,0.009,-0.997,0.101
1755668828.252918,0.009,-0.998,0.102
1755668828.370256,0.008,-0.998,0.101
1755668828.490136,0.01,-0.998,0.102
1755668828.6106298,0.009,-0.997,0.101
1755668828.7282372,0.009,-0.998,0.102
1755668828.849814,0.009,-0.997,0.102
1755668828.9623418,0.008,-0.998,0.103
1755668829.077,0.009,-0.998,0.103
1755668829.201676,0.008,-0.998,0.102
1755668829.341488,0.007,-0.998,0.102
1755668829.453768,0.01,-0.998,0.101
1755668829.57242,0.008,-0.998,0.101
1755668829.681677,0.009,-0.997,0.101
1755668829.7970712,0.007,-0.998,0.102
1755668829.91065,0.009,-0.998,0.101
1755668830.027197,0.008,-0.998,0.102
1755668830.144191,0.011,-0.998,0.101
1755668830.260992,0.008,-0.997,0.102
1755668830.373446,0.009,-0.997,0.102
1755668830.492069,0.008,-0.997,0.102
1755668830.6009111,0.009,-0.998,0.101
1755668830.7124422,0.008,-0.997,0.102
1755668830.822986,0.009,-0.998,0.102
1755668830.94128,0.009,-0.998,0.102
1755668831.055126,0.009,-0.998,0.102
1755668831.165411,0.01,-0.999,0.102
1755668831.2798998,0.008,-0.997,0.102
1755668831.392604,0.008,-0.998,0.102
1755668831.504769,0.008,-0.998,0.102
1755668831.619803,0.009,-0.998,0.101
1755668831.732224,0.008,-0.999,0.102
1755668831.847767,0.009,-0.998,0.102
1755668831.967089,0.009,-0.997,0.102
1755668832.0820282,0.009,-0.998,0.102
1755668832.1888168,0.008,-0.998,0.102
1755668832.2989628,0.01,-0.998,0.102
1755668832.429356,0.008,-0.999,0.101
1755668832.546627,0.008,-0.997,0.101
1755668832.6601658,0.008,-0.998,0.103
1755668832.7647948,0.01,-0.997,0.101
1755668832.876042,0.007,-0.998,0.103
1755668832.997378,0.01,-0.998,0.101
1755668833.112053,0.007,-0.999,0.102
1755668833.238701,0.01,-0.997,0.102
1755668833.359377,0.008,-0.998,0.102
1755668833.477241,0.009,-0.998,0.102
1755668833.590602,0.008,-0.998,0.102
1755668833.700717,0.009,-0.998,0.102
1755668833.814403,0.008,-0.997,0.101
1755668833.930601,0.008,-0.998,0.102
1755668834.040309,0.009,-0.998,0.101
1755668834.154036,0.01,-0.998,0.102
1755668834.2604349,0.008,-0.998,0.102
1755668834.3655329,0.008,-0.998,0.102
1755668834.475785,0.009,-0.998,0.101
1755668834.590396,0.008,-0.998,0.101
1755668834.703486,0.009,-0.998,0.102
1755668834.8214889,0.009,-0.998,0.102
1755668834.936457,0.008,-0.998,0.102
1755668835.0474198,0.008,-0.998,0.102
1755668835.218672,0.008,-0.998,0.102
1755668835.3340192,0.009,-0.998,0.102
1755668835.457419,0.008,-0.998,0.102
1755668835.579848,0.008,-0.997,0.102
1755668835.695518,0.009,-0.998,0.101
1755668835.803661,0.008,-0.998,0.102
1755668835.907658,0.008,-0.997,0.102
1755668836.024739,0.01,-0.997,0.101
1755668836.138149,0.008,-0.998,0.102
1755668836.248632,0.009,-0.998,0.101
1755668836.3617349,0.007,-0.997,0.103
1755668836.480216,0.011,-0.998,0.102
1755668836.59499,0.008,-0.997,0.102
1755668836.702898,0.009,-0.998,0.101
1755668836.819666,0.009,-0.999,0.102
1755668836.929663,0.008,-0.998,0.102
1755668837.047411,0.011,-0.997,0.102
1755668837.15378,0.009,-0.998,0.102
1755668837.2696488,0.008,-0.998,0.101
1755668837.37676,0.009,-0.998,0.102
1755668837.489011,0.009,-0.997,0.103
1755668837.610341,0.009,-0.998,0.103
1755668837.719027,0.008,-0.997,0.102
1755668837.8436842,0.009,-0.998,0.101
1755668837.960564,0.008,-0.997,0.102
1755668838.071567,0.01,-0.998,0.102
1755668838.189758,0.007,-0.997,0.102
1755668838.303295,0.009,-0.998,0.102
1755668838.4215329,0.008,-0.996,0.102
1755668838.539784,0.009,-0.997,0.102
1755668838.653682,0.009,-0.997,0.102
1755668838.7633762,0.009,-0.998,0.102
1755668838.886108,0.008,-0.997,0.103
1755668838.999436,0.009,-0.999,0.102
1755668839.117718,0.01,-0.997,0.102
1755668839.2330382,0.008,-0.997,0.102
1755668839.353736,0.009,-0.997,0.102
1755668839.474507,0.008,-0.998,0.102
1755668839.59615,0.008,-0.998,0.102
1755668839.71356,0.009,-0.998,0.102
1755668839.8363771,0.009,-0.998,0.101
1755668839.954755,0.009,-0.998,0.102
1755668840.0762,0.008,-0.998,0.102
1755668840.190739,0.009,-0.999,0.102
1755668840.301729,0.008,-0.998,0.102
1755668840.423583,0.009,-0.998,0.101
1755668840.539762,0.009,-0.998,0.102
1755668840.652868,0.009,-0.998,0.102
1755668840.7719162,0.01,-0.998,0.102
1755668840.881102,0.008,-0.998,0.101
1755668840.9938922,0.009,-0.998,0.101
1755668841.109154,0.008,-0.997,0.102
1755668841.248467,0.009,-0.998,0.101
1755668841.372489,0.008,-0.998,0.101
1755668841.48792,0.008,-0.998,0.102
1755668841.602802,0.009,-0.998,0.102
1755668841.7402182,0.009,-0.997,0.102
1755668841.857266,0.009,-0.997,0.101
1755668841.961406,0.009,-0.998,0.102
1755668842.081708,0.008,-0.998,0.102
1755668842.200657,0.008,-0.998,0.102
1755668842.3145971,0.008,-0.998,0.102
1755668842.43331,0.01,-0.998,0.102
1755668842.548964,0.007,-0.998,0.101
1755668842.6692889,0.008,-0.998,0.102
1755668842.773953,0.008,-0.998,0.102
1755668842.891383,0.009,-0.997,0.102
1755668843.0143502,0.009,-0.999,0.102
1755668843.136118,0.008,-0.998,0.102
1755668843.248091,0.008,-0.997,0.102
1755668843.3855722,0.009,-0.998,0.102
1755668843.738857,0.008,-0.998,0.102
1755668843.861753,0.009,-0.998,0.102
1755668843.982261,0.007,-0.998,0.103
1755668844.111579,0.009,-0.998,0.102
1755668844.234098,0.008,-0.998,0.102
1755668844.338756,0.009,-0.998,0.102
1755668844.450311,0.009,-0.998,0.102
1755668844.566922,0.008,-0.997,0.102
1755668844.678574,0.009,-0.998,0.102
1755668844.798052,0.008,-0.998,0.101
1755668844.9088871,0.009,-0.998,0.102
1755668845.018755,0.009,-0.998,0.101
1755668845.138272,0.009,-0.998,0.102
1755668845.2601202,0.008,-0.998,0.103
1755668845.373652,0.009,-0.998,0.102
1755668845.505847,0.009,-0.997,0.102
1755668845.613603,0.009,-0.998,0.102
1755668845.72106,0.008,-0.998,0.102
1755668845.839235,0.009,-0.998,0.102
1755668845.955261,0.008,-0.998,0.102
1755668846.078478,0.008,-0.997,0.103
1755668846.204113,0.009,-0.998,0.102
1755668846.335501,0.008,-0.998,0.102
1755668846.454387,0.009,-0.998,0.102
1755668846.574207,0.008,-0.998,0.102
1755668846.687295,0.009,-0.997,0.102
1755668846.8057332,0.008,-0.999,0.102
1755668846.914826,0.008,-0.998,0.102
1755668847.035638,0.009,-0.998,0.102
1755668847.151474,0.009,-0.998,0.102
1755668847.271304,0.009,-0.998,0.102
1755668847.387199,0.009,-0.997,0.102
1755668847.49916,0.009,-0.997,0.102
1755668847.620657,0.008,-0.998,0.103
1755668847.738181,0.008,-0.997,0.102
1755668847.855171,0.008,-0.997,0.102
1755668847.9771469,0.009,-0.998,0.103
1755668848.095922,0.008,-0.998,0.103
1755668848.216658,0.008,-0.997,0.102
1755668848.35663,0.009,-0.999,0.102
1755668848.4757152,0.009,-0.998,0.102
1755668848.5981948,0.008,-0.998,0.103
1755668848.715945,0.008,-0.997,0.102
1755668848.834829,0.009,-0.998,0.101
1755668848.96178,0.009,-0.997,0.101
1755668849.098602,0.009,-0.998,0.102
1755668849.206901,0.008,-0.998,0.102
1755668849.345963,0.008,-0.998,0.102
1755668849.462173,0.009,-0.998,0.102
1755668849.5745862,0.008,-0.997,0.102
1755668849.690285,0.009,-0.998,0.102
1755668849.8133,0.008,-0.998,0.103
1755668849.930838,0.009,-0.998,0.103
1755668850.0407271,0.009,-0.998,0.102
1755668850.1555169,0.008,-0.998,0.102
1755668850.265057,0.009,-0.998,0.103
1755668850.372799,0.009,-0.998,0.102
1755668850.492197,0.009,-0.998,0.102
1755668850.613157,0.009,-0.998,0.102
1755668850.736371,0.01,-0.997,0.102
1755668850.855084,0.009,-0.998,0.102
1755668850.97015,0.009,-0.998,0.102
1755668851.0838609,0.009,-0.997,0.102
1755668851.19892,0.01,-0.998,0.102
1755668851.315509,0.008,-0.997,0.102
1755668851.436304,0.008,-0.998,0.102
1755668851.545535,0.008,-0.998,0.102
1755668851.655974,0.008,-0.997,0.101
1755668851.775737,0.008,-0.998,0.102
1755668851.8906271,0.009,-0.998,0.101
1755668852.007605,0.008,-0.998,0.101
1755668852.124139,0.008,-0.999,0.101
1755668852.2375329,0.008,-0.997,0.101
1755668852.344488,0.007,-0.997,0.101
1755668852.454175,0.008,-0.998,0.101
1755668852.564717,0.007,-0.998,0.102
1755668852.673696,0.01,-0.997,0.101
1755668852.787478,0.008,-0.998,0.101
1755668852.90104,0.009,-0.997,0.102
1755668853.024931,0.008,-0.998,0.101
1755668853.147212,0.009,-0.998,0.101
1755668853.263492,0.008,-0.997,0.102
1755668853.382457,0.008,-0.998,0.102
1755668853.497522,0.007,-0.998,0.102
1755668853.611875,0.01,-0.998,0.101
1755668853.7214148,0.009,-0.999,0.102
1755668853.845651,0.008,-0.998,0.103
1755668853.96177,0.009,-0.998,0.103
1755668854.070821,0.009,-0.999,0.102
1755668854.180331,0.009,-0.999,0.102
1755668854.2975738,0.007,-0.998,0.102
1755668854.406076,0.008,-0.998,0.103
1755668854.5175738,0.009,-0.997,0.102
1755668854.632127,0.009,-0.998,0.102
1755668854.741087,0.008,-0.998,0.102
1755668854.857551,0.008,-0.998,0.102
1755668854.967908,0.008,-0.997,0.102
1755668855.080012,0.009,-0.998,0.102
1755668855.2073312,0.009,-0.998,0.102
1755668855.311602,0.008,-0.998,0.102
1755668855.424757,0.008,-0.997,0.102
1755668855.5375402,0.009,-0.998,0.103
1755668855.647442,0.008,-0.999,0.102
1755668855.7593348,0.008,-0.997,0.102
1755668855.8743382,0.008,-0.998,0.103
1755668855.982018,0.009,-0.997,0.102
1755668856.090052,0.009,-0.998,0.102
1755668856.199856,0.009,-0.998,0.103
1755668856.3099031,0.011,-0.997,0.102
1755668856.421659,0.01,-0.997,0.102
1755668856.536957,0.006,-0.998,0.103
1755668856.6761138,0.011,-0.998,0.102
1755668856.787563,0.006,-0.998,0.103
1755668856.8958662,0.01,-0.999,0.101
1755668857.013682,0.005,-0.998,0.102
1755668857.134389,0.011,-0.995,0.101
1755668857.25057,0.006,-0.998,0.103
1755668857.3582,0.01,-0.997,0.101
1755668857.465195,0.008,-0.998,0.102
1755668857.582183,0.008,-0.998,0.101
1755668857.694479,0.008,-0.998,0.102
1755668857.8047202,0.01,-0.998,0.101
1755668857.913503,0.007,-0.998,0.102
1755668858.027943,0.011,-0.998,0.101
1755668858.14276,0.008,-0.998,0.102
1755668865.3589802,0.008,-0.998,0.102
1755668865.611913,0.008,-0.998,0.102
1755668865.717555,0.008,-0.998,0.102
1755668865.827039,0.008,-0.998,0.102
1755668865.932732,0.008,-0.998,0.102
1755668866.0497332,0.008,-0.998,0.102
1755668866.161315,0.008,-0.998,0.102
1755668866.27227,0.008,-0.998,0.102
1755668866.389055,0.008,-0.998,0.102
1755668866.498841,0.008,-0.998,0.102
1755668866.612206,0.008,-0.998,0.102
1755668866.727852,0.008,-0.998,0.102
1755668866.833677,0.008,-0.998,0.102
1755668866.953177,0.008,-0.998,0.102
1755668867.0649002,0.008,-0.998,0.102
1755668867.176267,0.008,-0.998,0.102
1755668867.2830029,0.008,-0.998,0.102
1755668867.399495,0.008,-0.998,0.102
1755668867.514006,0.008,-0.998,0.102
1755668867.627195,0.008,-0.998,0.102
1755668867.7461278,0.008,-0.998,0.102
1755668867.8543,0.008,-0.998,0.102
1755668867.967118,0.008,-0.998,0.102
1755668868.079672,0.008,-0.998,0.102
1755668868.215029,0.008,-0.998,0.102
1755668868.319861,0.008,-0.998,0.102
1755668868.434017,0.008,-0.998,0.102
1755668868.5457149,0.008,-0.998,0.102
1755668868.658839,0.008,-0.998,0.102
1755668868.7634912,0.008,-0.998,0.102
1755668891.2265532,-0.036,-0.982,-0.213
1755668891.470309,-0.053,-0.973,-0.209
1755668891.596781,-0.06,-0.956,-0.208
1755668891.711434,-0.061,-0.987,-0.203
1755668891.835825,-0.04,-0.967,-0.217
1755668891.958883,-0.036,-0.989,-0.194
1755668892.0761878,-0.032,-0.991,-0.204
1755668892.2022889,-0.033,-0.984,-0.19
1755668892.3230278,-0.038,-0.973,-0.192
1755668892.447955,-0.016,-0.989,-0.198
1755668892.566041,-0.036,-0.965,-0.171
1755668892.6831129,-0.11,-0.951,-0.123
1755668892.79288,0.026,-1.019,-0.282
1755668892.909372,0.036,-1.02,-0.307
1755668893.028364,0.014,-1.038,-0.254
1755668893.141464,-0.023,-0.945,-0.242
1755668893.252539,-0.019,-0.96,-0.247
1755668893.371702,-0.011,-0.97,-0.204
1755668893.490274,-0.005,-0.969,-0.223
1755668893.616089,0.0,-0.972,-0.24
1755668893.7304802,0.01,-1.01,-0.217
1755668893.846813,0.016,-0.977,-0.209
1755668893.958542,0.024,-0.989,-0.213
1755668894.081749,0.026,-0.977,-0.209
1755668894.198068,0.021,-0.966,-0.197
1755668894.313535,0.027,-0.98,-0.204
1755668894.424065,0.033,-0.975,-0.204
1755668894.546538,0.033,-0.965,-0.19
1755668894.654897,0.036,-0.985,-0.192
1755668894.776305,0.053,-0.928,-0.188
1755668894.886539,0.087,-0.94,-0.161
1755668895.00524,0.163,-1.045,-0.201
1755668895.12268,0.178,-0.978,-0.195
1755668895.2397308,0.162,-0.973,-0.182
1755668895.3592918,0.153,-1.012,-0.202
1755668895.477781,0.082,-1.016,-0.2
1755668895.5858629,-0.01,-0.945,-0.168
1755668895.69924,-0.069,-1.076,-0.215
1755668895.810392,-0.243,-0.964,-0.241
1755668895.923176,-0.433,-0.912,-0.257
1755668896.036963,-0.588,-0.727,-0.059
1755668896.156373,-0.754,-0.515,0.31
1755668896.276785,-0.824,-0.373,0.456
1755668896.3916411,-0.777,0.039,0.75
1755668896.5063848,-0.815,0.145,0.668
1755668896.623721,-0.846,0.101,0.233
1755668896.7422988,-0.902,-0.058,-0.148
1755668896.8525388,-0.691,-0.344,-0.411
1755668896.974797,-0.672,-0.706,-0.014
1755668897.087269,-0.39,-0.979,-0.094
1755668897.201979,-0.029,-1.083,0.035
1755668897.318825,0.216,-1.202,-0.011
1755668897.4294772,0.258,-1.106,0.081
1755668897.551942,0.156,-1.205,-0.075
1755668897.671802,-0.192,-1.013,0.038
1755668897.7875042,-0.576,-0.65,-0.157
1755668897.897268,-0.696,-0.333,-0.059
1755668898.012295,-0.733,0.098,0.347
1755668898.1275089,-0.75,-0.031,0.704
1755668898.24451,-0.683,0.125,0.998
1755668898.365656,-0.714,0.144,0.926
1755668898.479998,-0.819,0.103,0.466
1755668898.597179,-0.889,0.184,0.17
1755668898.715117,-0.783,-0.142,-0.311
1755668898.8248582,-0.459,-0.49,-0.459
1755668898.93332,0.02,-1.051,-0.275
1755668899.0469592,0.425,-0.885,-0.01
1755668899.16911,0.639,-1.02,0.447
1755668899.305088,0.831,-1.179,0.574
1755668899.414162,0.595,-0.857,0.521
1755668899.525159,-0.227,-0.904,0.302
1755668899.6418922,-0.469,-0.497,0.009
1755668899.75762,-0.523,-0.19,0.327
1755668899.87655,-0.519,-0.141,0.951
1755668899.992198,-0.211,0.197,1.449
1755668900.103696,-0.268,0.236,1.776
1755668900.227788,-0.654,0.147,0.3
1755668900.3421462,-0.693,-0.077,-0.186
1755668900.456608,-0.496,-0.324,-0.529
1755668900.5697489,-0.291,-0.797,-0.621
1755668900.685143,-0.087,-0.94,-0.33
1755668900.796348,0.108,-1.004,-0.167
1755668900.913155,0.382,-1.191,-0.114
1755668901.029943,0.373,-1.073,0.026
1755668901.14826,0.346,-0.941,-0.012
1755668901.26855,0.376,-0.906,-0.006
1755668901.385008,0.418,-0.95,-0.028
1755668901.498813,0.397,-0.894,-0.029
1755668901.616093,0.403,-0.925,-0.014
1755668901.731095,0.405,-0.908,-0.042
1755668901.862088,0.412,-0.898,-0.035
1755668901.978112,0.416,-0.894,-0.037
1755668902.09583,0.423,-0.938,-0.05
1755668902.2103622,0.423,-0.94,-0.052
1755668902.325661,0.417,-0.943,-0.033
1755668902.438713,0.43,-0.922,-0.05
1755668902.555334,0.48,-0.996,-0.123
1755668902.671201,0.432,-1.125,-0.097
1755668902.782666,0.166,-0.911,0.002
1755668902.900852,-0.21,-1.049,-0.19
1755668903.015161,-0.275,-0.93,-0.227
1755668903.126077,-0.225,-0.834,-0.365
1755668903.244456,-0.3,-0.779,-0.53
1755668903.362474,-0.416,-0.687,-0.383
1755668903.47744,-0.574,-0.53,-0.458
1755668903.590069,-0.612,-0.547,-0.439
1755668903.706312,-0.571,-0.546,-0.443
1755668903.8126562,-0.526,-0.617,-0.439
1755668903.9341729,-0.53,-0.721,-0.334
1755668904.04738,-0.478,-0.763,-0.32
1755668904.152069,-0.398,-0.926,-0.332
1755668904.268878,-0.332,-0.954,-0.299
1755668904.384026,-0.227,-0.951,-0.246
1755668904.496563,-0.249,-0.944,-0.095
1755668904.610196,-0.188,-0.891,-0.12
1755668904.7366369,-0.163,-1.077,-0.059
1755668904.843366,-0.206,-0.938,-0.176
1755668904.964849,-0.393,-0.987,0.274
1755668905.07445,-0.225,-0.981,0.219
1755668905.192889,-0.258,-0.813,0.211
1755668905.303437,-0.21,-0.831,0.094
1755668905.419751,-0.13,-0.626,0.597
1755668905.530189,0.1,-0.683,0.863
1755668905.653517,0.422,-0.661,1.018
1755668905.776803,0.737,-0.53,1.046
1755668905.8940978,0.615,-0.544,0.668
1755668906.006752,0.529,-0.358,0.44
1755668906.126121,1.046,0.211,0.1
1755668906.23873,1.163,-0.101,0.215
1755668906.352478,1.027,0.168,0.011
1755668906.483774,1.109,0.238,-0.007
1755668906.592397,1.144,0.165,0.058
1755668906.697793,1.233,0.027,0.184
1755668906.813172,1.261,0.012,0.217
1755668906.935435,1.272,0.05,0.211
1755668907.0532951,0.903,0.007,0.151
1755668907.170877,0.914,-0.272,0.242
1755668907.286068,1.024,-0.271,0.284
1755668907.396286,1.084,-0.273,0.232
1755668907.508312,0.961,-0.341,0.265
1755668907.623477,0.984,-0.34,0.243
1755668907.759576,0.801,-0.441,0.222
1755668907.881651,0.719,-0.502,0.143
1755668907.9910452,0.738,-0.58,0.162
1755668908.0991318,0.734,-0.63,0.181
1755668908.211277,0.782,-0.594,0.19
1755668908.333013,0.777,-0.595,0.158
1755668908.445032,0.769,-0.623,0.125
1755668908.56647,0.807,-0.599,0.104
1755668908.680415,0.723,-0.51,0.022
1755668908.796502,0.807,-0.339,-0.222
1755668908.92396,0.976,-0.327,-0.347
1755668909.053256,1.031,-0.271,-0.223
1755668909.168824,1.013,-0.14,-0.274
1755668909.279562,1.019,-0.17,-0.332
1755668909.406861,0.974,-0.268,-0.267
1755668909.527686,1.028,-0.276,-0.197
1755668909.648083,0.874,-0.325,-0.263
1755668909.758121,0.879,-0.355,-0.416
1755668909.868694,0.927,-0.455,-0.357
1755668909.985883,0.889,-0.474,-0.27
1755668910.096698,0.788,-0.572,-0.07
1755668910.201716,0.799,-0.63,0.024
1755668910.3176022,0.776,-0.693,0.029
1755668910.4403431,0.758,-0.704,0.06
1755668910.551266,0.737,-0.681,0.08
1755668910.666359,0.762,-0.684,0.13
1755668910.7766132,0.804,-0.604,0.154
1755668910.885203,0.791,-0.53,0.153
1755668911.000742,0.779,-0.475,0.173
1755668911.1098838,0.803,-0.342,0.219
1755668911.223973,0.908,-0.166,0.169
1755668911.350813,1.244,0.052,-0.007
1755668911.461697,0.838,-0.11,0.023
1755668911.570026,0.945,0.058,0.145
1755668911.684744,1.143,0.115,0.194
1755668911.985007,1.188,0.194,0.093
1755668912.108654,0.978,0.184,0.065
1755668912.236722,0.92,0.266,0.05
1755668912.3579211,0.614,0.407,-0.042
1755668912.480879,0.859,0.318,-0.009
1755668912.600126,1.125,0.443,-0.023
1755668912.716713,-0.029,-0.041,-0.03
1755668912.842404,-0.699,0.948,0.011
1755668912.965164,-0.113,0.273,-0.978
1755668913.082031,-0.006,0.244,-0.894
1755668913.208746,0.008,0.185,-0.997
1755668913.332306,0.016,-0.004,-0.999
1755668913.4535758,0.006,0.258,-0.885
1755668913.5727649,0.011,0.031,-1.026
1755668913.694836,0.011,0.098,-0.989
1755668913.8155909,0.014,0.111,-0.997
1755668913.9351392,0.013,0.074,-0.996
1755668914.054493,0.017,0.072,-0.993
1755668914.192422,-0.006,0.019,-1.11
1755668914.31586,-0.022,-0.116,-1.138
1755668914.433714,0.007,0.075,-1.011
1755668914.549689,0.02,0.063,-1.0
1755668914.660998,0.018,0.095,-0.978
1755668914.7775118,0.018,0.075,-0.982
1755668914.900928,0.021,0.079,-0.995
1755668915.018239,0.017,0.093,-0.992
1755668915.128814,0.021,0.061,-1.007
1755668915.2456162,0.02,0.079,-0.996
1755668915.361148,0.014,0.01,-1.103
1755668915.478614,0.018,0.092,-0.993
1755668915.586893,0.02,0.087,-0.994
1755668915.693708,0.02,0.086,-0.994
1755668915.805586,0.02,0.094,-0.978
1755668915.917533,0.018,0.093,-0.991
1755668916.034304,0.032,0.036,-1.018
1755668916.1563652,0.024,0.072,-1.004
1755668916.266911,0.022,0.082,-0.995
1755668916.389589,0.021,0.082,-0.995
1755668916.5095098,0.022,0.081,-0.994
1755668916.623147,0.021,0.082,-0.995
1755668916.743116,0.022,0.081,-0.994
1755668916.86317,0.022,0.082,-0.995
1755668916.976862,0.023,0.066,-1.005
1755668917.094263,0.023,0.072,-0.997
1755668917.213848,0.021,0.09,-0.982
1755668917.326786,0.028,0.055,-1.001
1755668917.4604428,-0.001,0.115,-0.934
1755668917.581131,0.043,0.037,-1.189
1755668917.704629,0.001,0.253,-0.996
1755668917.821989,-0.044,0.077,-1.058
1755668917.941855,0.059,0.494,-0.852
1755668918.059214,0.081,0.496,-0.948
1755668918.179148,0.147,0.898,-0.268
1755668918.28327,1.403,0.613,-0.302
1755668918.400961,1.661,0.67,0.165
1755668918.518946,0.52,0.234,-0.019
1755668918.6292968,0.624,0.296,0.045
1755668918.752705,0.712,0.273,-0.037
1755668918.8923452,0.855,0.29,-0.0
1755668919.014977,1.277,0.421,0.246
1755668919.1346009,0.805,0.289,0.033
1755668919.251133,2.374,0.006,0.912
1755668919.365037,2.118,0.055,0.083
1755668919.485108,2.335,0.431,0.222
1755668919.5950289,1.867,-0.311,-0.135
1755668919.708384,-0.954,-0.52,-0.033
1755668919.831522,1.93,0.382,-1.632
1755668919.945339,1.229,-0.076,-0.381
1755668920.065887,0.809,-0.276,-0.451
1755668920.183171,0.429,-0.298,-0.561
1755668920.296413,0.308,-0.456,-0.687
1755668920.4065778,0.045,-0.406,-0.703
1755668920.525028,-0.094,-0.492,-0.758
1755668920.64307,-0.016,-0.529,-0.842
1755668920.76366,-0.106,-0.646,-0.854
1755668920.878974,-0.28,-0.696,-0.552
1755668920.993268,-0.26,-0.756,-0.521
1755668921.119043,-0.495,-0.715,-0.276
1755668921.23971,-0.509,-0.707,-0.279
1755668921.3525782,-0.59,-0.807,-0.09
1755668921.478723,-0.549,-0.757,-0.117
1755668921.595445,-0.503,-0.829,-0.095
1755668921.706903,-0.543,-0.864,-0.133
1755668921.8346,-0.449,-0.852,-0.159
1755668921.9475148,-0.459,-0.851,-0.177
1755668922.061481,-0.449,-0.841,-0.179
1755668922.179111,-0.419,-0.881,-0.189
1755668922.297251,-0.396,-0.878,-0.143
1755668922.414003,-0.397,-0.85,-0.112
1755668922.534529,-0.451,-0.728,-0.099
1755668922.650332,-0.533,-0.646,-0.284
1755668922.77142,-0.319,-0.424,-0.425
1755668922.881632,-0.26,-0.252,-0.696
1755668922.9931462,-0.208,-0.212,-0.899
1755668923.10219,0.214,-0.24,-1.078
1755668923.222223,0.492,-0.168,-0.914
1755668923.34383,0.616,-0.238,-1.121
1755668923.452363,0.844,-0.31,-1.098
1755668923.566116,0.991,-0.343,-0.867
1755668923.68316,0.76,-0.411,-0.626
1755668923.7959502,0.559,-0.465,-0.616
1755668923.910123,0.413,-0.502,-0.581
1755668924.023613,0.274,-0.472,-0.799
1755668924.1388202,0.235,-0.467,-0.964
1755668924.2543502,0.241,-0.386,-0.943
1755668924.3739269,0.213,-0.307,-0.76
1755668924.492485,0.26,-0.263,-0.818
1755668924.605584,0.416,-0.229,-1.113
1755668924.73078,0.61,-0.174,-1.088
1755668924.849836,0.572,-0.274,-0.76
1755668924.9576828,0.485,-0.36,-0.737
1755668925.063925,0.411,-0.444,-0.77
1755668925.186646,0.452,-0.577,-0.424
1755668925.312871,0.415,-0.677,-0.44
1755668925.422467,0.536,-0.75,-0.496
1755668925.541654,0.572,-0.683,-0.421
1755668925.660353,0.513,-0.497,-0.464
1755668925.768162,0.728,-0.521,-0.556
1755668925.885803,0.792,-0.412,-0.353
1755668926.044487,0.915,-0.625,-0.318
1755668926.157751,0.766,-0.202,-0.041
1755668926.267957,1.138,-0.314,-0.106
1755668926.377658,1.297,-0.287,-0.08
1755668926.501107,1.002,-0.028,-0.021
1755668926.6172109,0.925,-0.038,0.094
1755668926.735945,1.152,-0.083,0.141
1755668926.8427331,1.324,-0.571,-0.164
1755668926.9616058,0.741,-0.355,-0.257
1755668927.0819771,0.963,-1.063,-0.032
1755668927.1970189,0.935,-0.416,-0.101
1755668927.314763,0.098,-0.611,-0.209
1755668927.45325,0.288,-0.812,-0.325
1755668927.574219,0.484,-0.307,-0.754
1755668927.712364,0.728,-0.684,-0.888
1755668927.8278458,2.115,-0.663,-0.762
1755668927.943276,0.375,-0.494,-0.098
1755668928.056468,-0.337,-0.178,-0.447
1755668928.1668491,-0.129,0.425,-0.888
1755668928.28612,0.0,0.649,-1.267
1755668928.392065,-0.13,0.463,-0.765
1755668928.5093691,-0.401,0.574,-0.653
1755668928.6214569,-0.889,-0.231,-0.161
1755668928.737607,-0.974,-0.042,0.061
1755668928.845898,-0.932,-0.205,0.184
1755668928.96596,-0.751,-0.509,0.352
1755668929.07911,-0.503,-0.639,0.589
1755668929.1985228,-0.255,-0.785,0.801
1755668929.3110578,-0.1,-0.854,0.685
1755668929.423206,-0.079,-0.902,0.715
1755668929.540375,-0.134,-0.689,0.569
1755668929.654858,-0.183,-0.673,0.565
1755668929.7652411,-0.23,-0.715,0.559
1755668929.87755,-0.329,-0.612,0.541
1755668929.989588,-0.495,-0.774,0.61
1755668930.095698,-0.598,-0.724,0.597
1755668930.212325,-0.594,-0.771,0.489
1755668930.331981,-0.667,-0.544,0.458
1755668930.451861,-0.668,-0.584,0.393
1755668930.570878,-0.723,-0.476,0.303
1755668930.6815722,-0.738,-0.44,0.226
1755668930.797547,-0.725,-0.363,0.171
1755668930.9035342,-0.707,-0.529,0.192
1755668931.022124,-0.603,-0.68,0.204
1755668931.148268,-0.462,-0.573,0.439
1755668931.268739,-0.298,-0.894,0.526
1755668931.385227,-0.238,-0.723,0.556
1755668931.500271,0.158,-1.196,0.577
1755668931.611406,0.182,-0.9,0.421
1755668931.728385,0.211,-0.91,0.347
1755668931.849746,0.316,-0.843,0.494
1755668931.967375,0.449,-0.811,0.71
1755668932.071368,0.513,-0.785,0.543
1755668932.195841,0.742,-0.844,0.837
1755668932.303097,0.67,-0.722,0.737
1755668932.420164,0.552,-0.672,0.688
1755668932.536022,0.333,-0.689,0.715
1755668932.655355,0.183,-0.77,0.589
1755668932.765237,0.019,-0.722,0.459
1755668932.870498,-0.051,-0.667,0.594
1755668932.9870331,-0.205,-0.661,0.577
1755668933.098635,-0.37,-0.615,0.515
1755668933.210796,-0.426,-0.62,0.551
1755668933.331703,-0.365,-0.669,0.487
1755668933.451319,-0.256,-0.716,0.526
1755668933.5663738,-0.103,-0.804,0.525
1755668933.6860778,0.004,-0.695,0.659
1755668933.7941031,0.141,-0.63,0.613
1755668933.911488,0.348,-0.432,0.748
1755668934.032643,0.394,-0.47,0.726
1755668934.149615,0.561,-0.486,0.818
1755668934.264104,0.691,-0.294,0.652
1755668934.371341,0.886,-0.27,0.731
1755668934.477477,0.982,-0.488,0.638
1755668934.6050649,1.042,-0.614,0.614
1755668934.714827,0.938,-0.519,0.499
1755668934.832671,0.9,-0.524,0.479
1755668934.9525728,0.945,-0.609,0.534
1755668935.064687,0.835,-0.675,0.56
1755668935.179062,0.688,-0.625,0.618
1755668935.295587,0.479,-0.694,0.598
1755668935.417231,0.279,-0.588,0.588
1755668935.535035,0.074,-0.729,0.58
1755668935.6537778,-0.004,-0.871,0.527
1755668935.764483,-0.126,-0.795,0.423
1755668935.884534,-0.183,-0.832,0.41
1755668935.999988,-0.266,-0.799,0.371
1755668936.106157,-0.465,-0.689,0.267
1755668936.233788,-0.596,-0.71,0.27
1755668936.337978,-0.576,-0.68,0.397
1755668936.452628,-0.601,-0.666,0.271
1755668936.5644422,-0.543,-0.69,0.375
1755668936.681841,-0.489,-0.696,0.287
1755668936.788913,-0.462,-0.8,0.337
1755668936.905243,-0.483,-0.841,0.283
1755668937.023832,-0.353,-0.835,0.336
1755668937.129475,-0.297,-0.893,0.368
1755668937.24629,-0.297,-0.819,0.448
1755668937.360648,-0.215,-0.833,0.419
1755668937.478409,-0.205,-0.874,0.491
1755668937.598658,-0.192,-0.894,0.597
1755668937.7113678,-0.199,-0.759,0.573
1755668937.826433,-0.138,-0.788,0.671
1755668937.9334211,-0.115,-0.742,0.665
1755668938.04201,-0.025,-0.719,0.688
1755668938.153327,-0.003,-0.646,0.676
1755668938.2707222,0.121,-0.765,0.763
1755668938.386794,0.279,-0.732,0.646
1755668938.505175,0.411,-0.671,0.833
1755668938.625978,0.482,-0.772,0.768
1755668938.743924,0.477,-0.783,0.849
1755668938.84717,0.462,-0.712,0.828
1755668938.964234,-0.06,-0.51,0.615
1755668939.082149,-0.095,-0.853,0.714
1755668939.19552,-0.26,-0.804,0.548
1755668939.30577,-0.271,-0.776,0.379
1755668939.42133,-0.316,-0.806,0.385
1755668939.534661,-0.413,-0.666,0.33
1755668939.640557,-0.725,-0.462,0.227
1755668939.756709,-0.83,-0.471,0.422
1755668939.8918269,-0.908,-0.324,0.26
1755668940.007066,-0.916,-0.298,0.097
1755668940.121761,-0.92,-0.23,0.031
1755668940.235371,-0.743,-0.369,-0.168
1755668940.345238,-0.635,-0.55,-0.032
1755668940.4658182,-0.522,-0.632,0.089
1755668940.57625,-0.432,-0.442,0.589
1755668940.69035,-0.196,-0.545,0.681
1755668940.799867,-0.035,-0.518,0.897
1755668940.9132822,0.129,-0.595,0.933
1755668941.015632,0.417,-0.729,0.935
1755668941.124363,0.326,-0.685,0.696
1755668941.239084,0.348,-0.67,0.732
1755668941.345064,0.356,-0.575,0.528
1755668941.452778,0.721,-0.685,0.637
1755668941.5612302,0.906,-0.966,0.88
1755668941.678907,0.57,-0.481,0.838
1755668941.793663,0.022,-0.823,0.384
1755668941.904636,-0.01,-0.747,0.601
1755668942.014373,-0.078,-0.759,0.441
1755668942.1220438,-0.1,-0.83,0.46
1755668942.231624,-0.009,-0.92,0.572
1755668942.3344882,0.103,-0.843,0.6
1755668942.451187,0.13,-0.852,0.479
1755668942.5984929,0.207,-0.834,0.629
1755668942.765009,0.17,-0.695,0.609
1755668942.907753,0.174,-0.587,0.669
1755668943.01839,0.197,-0.47,0.653
1755668943.1407292,0.359,-0.754,0.643
1755668943.246979,0.415,-0.558,0.572
1755668943.3603048,0.576,-0.854,0.633
1755668943.479787,0.629,-0.781,0.808
1755668943.593474,0.615,-0.656,0.714
1755668943.700584,0.592,-0.73,0.778
1755668943.806546,0.532,-0.72,0.944
1755668943.912052,0.48,-0.774,0.901
1755668944.0213308,0.299,-0.661,0.685
1755668944.139484,-0.094,-0.549,0.597
1755668944.256756,-0.28,-0.322,0.138
1755668944.3656409,-0.085,-1.009,0.119
1755668944.4773078,-0.193,-1.095,0.404
1755668944.5872068,-0.13,-0.97,0.364
1755668944.6959848,-0.206,-0.888,0.341
1755668944.8086631,-0.219,-0.916,0.406
1755668944.9193878,-0.192,-0.869,0.341
1755668945.032502,-0.154,-0.979,0.348
1755668945.1561291,-0.181,-0.913,0.308
1755668945.270525,-0.171,-0.941,0.362
1755669075.8352928,-0.51,-0.792,0.328
1755669076.089233,-0.511,-0.789,0.334
1755669076.222199,-0.513,-0.809,0.325
1755669076.348923,-0.511,-0.781,0.35
1755669076.475822,-0.512,-0.793,0.326
1755669076.66754,-0.516,-0.807,0.336
1755669076.78055,-0.512,-0.817,0.338
1755669076.896995,-0.509,-0.792,0.35
1755669077.020436,-0.508,-0.794,0.342
1755669077.136816,-0.51,-0.815,0.339
1755669077.257738,-0.509,-0.816,0.334
1755669077.37401,-0.508,-0.797,0.338
1755669077.503623,-0.502,-0.794,0.339
1755669077.622565,-0.503,-0.789,0.339
1755669077.7415411,-0.503,-0.78,0.338
1755669077.860438,-0.499,-0.798,0.353
1755669077.976078,-0.499,-0.804,0.334
1755669078.095297,-0.496,-0.802,0.341
1755669078.2149172,-0.499,-0.804,0.343
1755669078.340411,-0.496,-0.802,0.342
1755669078.450651,-0.496,-0.802,0.354
1755669078.5701,-0.503,-0.795,0.343
1755669078.6855402,-0.503,-0.788,0.344
1755669078.7993548,-0.501,-0.802,0.356
1755669078.924874,-0.503,-0.781,0.348
1755669079.043782,-0.503,-0.784,0.341
1755669079.166282,-0.505,-0.795,0.352
1755669079.2828338,-0.504,-0.797,0.345
1755669079.401139,-0.501,-0.793,0.345
1755669079.523663,-0.505,-0.792,0.351
1755669079.641424,-0.507,-0.801,0.333
1755669079.75745,-0.508,-0.802,0.348
1755669079.8721652,-0.505,-0.8,0.34
1755669079.98831,-0.507,-0.788,0.347
1755669080.111325,-0.505,-0.794,0.347
1755669080.232517,-0.507,-0.796,0.34
1755669080.354294,-0.507,-0.796,0.346
1755669080.477172,-0.509,-0.82,0.34
1755669080.591071,-0.51,-0.775,0.353
1755669080.7063649,-0.496,-0.789,0.339
1755669080.834912,-0.506,-0.801,0.346
1755669080.95791,-0.488,-0.805,0.322
1755669081.075968,-0.488,-0.832,0.323
1755669081.192637,-0.471,-0.823,0.396
1755669081.309796,-0.425,-0.842,0.356
1755669081.4266062,-0.424,-0.875,0.467
1755669081.543783,-0.433,-0.715,0.521
1755669081.667087,-0.427,-0.755,0.508
1755669081.786247,-0.497,-0.722,0.588
1755669081.9021802,-0.541,-0.629,0.573
1755669082.017362,-0.541,-0.677,0.561
1755669082.134502,-0.583,-0.601,0.631
1755669082.251206,-0.595,-0.6,0.604
1755669082.3844612,-0.603,-0.597,0.507
1755669082.495362,-0.642,-0.53,0.545
1755669082.6184692,-0.672,-0.552,0.549
1755669082.736304,-0.7,-0.468,0.583
1755669082.865624,-0.687,-0.504,0.537
1755669082.9811578,-0.679,-0.544,0.514
1755669083.106349,-0.721,-0.461,0.497
1755669083.231042,-0.728,-0.543,0.443
1755669083.353027,-0.755,-0.509,0.411
1755669083.472105,-0.747,-0.523,0.44
1755669083.590047,-0.711,-0.626,0.373
1755669083.705573,-0.735,-0.662,0.362
1755669083.829474,-0.733,-0.654,0.312
1755669083.947804,-0.742,-0.665,0.262
1755669084.0707068,-0.735,-0.695,0.185
1755669084.192412,-0.756,-0.619,0.133
1755669084.318757,-0.775,-0.623,0.113
1755669084.439096,-0.783,-0.633,0.067
1755669084.566463,-0.774,-0.659,-0.031
1755669084.6818151,-0.734,-0.651,-0.086
1755669084.799171,-0.687,-0.684,-0.083
1755669084.91936,-0.721,-0.63,-0.144
1755669085.041279,-0.665,-0.721,-0.203
1755669085.155967,-0.625,-0.747,-0.212
1755669085.276198,-0.617,-0.726,-0.258
1755669085.38739,-0.6,-0.791,-0.284
1755669085.533695,-0.597,-0.771,-0.291
1755669085.6576772,-0.559,-0.791,-0.306
1755669085.771372,-0.578,-0.752,-0.231
1755669085.884129,-0.579,-0.774,-0.209
1755669085.999003,-0.583,-0.821,-0.19
1755669086.117934,-0.592,-0.849,-0.125
1755669086.23974,-0.61,-0.756,-0.171
1755669086.3579898,-0.619,-0.733,-0.203
1755669086.479802,-0.677,-0.696,-0.222
1755669086.591871,-0.695,-0.727,-0.183
1755669086.715777,-0.719,-0.634,-0.22
1755669086.831701,-0.769,-0.584,-0.223
1755669086.951061,-0.807,-0.566,-0.191
1755669087.0820951,-0.844,-0.485,-0.091
1755669087.210577,-0.89,-0.469,-0.153
1755669087.331698,-0.873,-0.447,-0.082
1755669087.449486,-0.871,-0.417,-0.217
1755669087.571981,-0.811,-0.445,-0.358
1755669087.692397,-0.778,-0.547,-0.328
1755669087.810781,-0.757,-0.474,-0.361
1755669087.933256,-0.69,-0.492,-0.45
1755669088.0523572,-0.63,-0.643,-0.533
1755669088.180332,-0.671,-0.606,-0.474
1755669088.2982552,-0.743,-0.533,-0.351
1755669088.409763,-0.799,-0.517,-0.216
1755669088.52386,-0.874,-0.493,-0.099
1755669088.6745138,-0.906,-0.417,-0.04
1755669088.788964,-0.992,-0.302,0.067
1755669088.908253,-1.007,-0.317,0.044
1755669089.020848,-0.896,-0.459,-0.073
1755669089.13756,-0.797,-0.476,-0.192
1755669089.251622,-0.721,-0.591,-0.35
1755669089.3669162,-0.666,-0.619,-0.368
1755669089.476257,-0.6,-0.772,-0.262
1755669089.592065,-0.632,-0.68,-0.102
1755669089.711701,-0.676,-0.661,-0.047
1755669089.81903,-0.716,-0.739,0.159
1755669089.929015,-0.787,-0.55,0.375
1755669090.048703,-0.793,-0.485,0.419
1755669090.16703,-0.685,-0.73,0.359
1755669090.2818,-0.557,-0.835,0.239
1755669090.398017,-0.426,-1.002,0.237
1755669090.5059378,-0.352,-0.988,0.105
1755669090.623807,-0.288,-0.991,-0.035
1755669090.735712,-0.315,-0.936,0.114
1755669090.848028,-0.415,-0.852,0.259
1755669090.9693298,-0.475,-0.808,0.391
1755669091.089599,-0.557,-0.73,0.42
1755669091.20122,-0.619,-0.606,0.578
1755669091.312947,-0.572,-0.682,0.587
1755669091.428066,-0.465,-0.814,0.447
1755669091.539542,-0.243,-1.211,0.251
1755669091.660638,-0.241,-1.119,0.091
1755669091.7754948,-0.351,-0.961,0.002
1755669091.893399,-0.46,-0.508,-0.261
1755669092.017588,-0.385,-0.202,-0.498
1755669092.132066,-0.206,-0.347,-0.691
1755669092.2452412,0.136,-0.474,-1.107
1755669092.365462,0.315,-0.301,-0.885
1755669092.478425,0.536,-0.737,-0.931
1755669092.597745,0.539,-0.631,-0.754
1755669092.724709,0.56,-0.487,-0.775
1755669092.848795,0.78,-0.906,-1.055
1755669092.971158,0.582,-0.706,-0.821
1755669093.0938728,0.492,-0.555,-0.827
1755669093.225439,0.113,-0.268,-0.554
1755669093.34298,-0.213,-0.02,-0.372
1755669093.447517,0.075,-0.403,-0.703
1755669093.552709,0.144,-0.492,-0.585
1755669093.66565,0.445,-0.84,-0.825
1755669093.775782,0.729,-1.013,-1.057
1755669093.8886652,0.557,-0.918,-0.903
1755669093.994176,0.177,-0.559,-0.622
1755669094.105559,-0.214,-0.381,-0.365
1755669094.2219808,-0.282,-0.153,-0.435
1755669094.336768,0.012,-0.522,-0.631
1755669094.452078,0.125,-0.674,-0.764
1755669094.563798,0.224,-0.644,-0.553
1755669094.683767,0.582,-1.332,-0.853
1755669094.7997482,0.415,-1.112,-0.783
1755669094.9064162,0.237,-0.93,-0.699
1755669095.039406,-0.088,-0.563,-0.587
1755669095.165237,-0.294,-0.275,-0.529
1755669095.282023,-0.297,-0.221,-0.69
1755669095.398327,-0.284,-0.161,-0.653
1755669095.504046,-0.16,-0.443,-0.691
1755669095.609971,-0.031,-0.622,-0.735
1755669095.726329,0.082,-0.74,-0.735
1755669095.848145,0.165,-0.948,-0.571
1755669095.964134,0.256,-1.106,-0.592
1755669096.085969,0.304,-1.188,-0.526
1755669096.198776,0.348,-1.389,-0.561
1755669096.310841,0.138,-1.126,-0.483
1755669096.4839869,-0.02,-0.998,-0.503
1755669096.598272,-0.238,-0.667,-0.451
1755669096.7237592,-0.3,-0.363,-0.478
1755669096.8399549,-0.344,-0.189,-0.463
1755669096.9630022,-0.303,-0.475,-0.382
1755669097.07793,-0.124,-0.751,-0.367
1755669097.2015822,0.125,-1.177,-0.14
1755669097.322912,0.185,-1.256,-0.036
1755669097.439054,0.246,-1.799,0.056
1755669097.559327,0.043,-1.35,0.085
1755669097.67631,-0.058,-1.136,-0.002
1755669097.7940218,-0.196,-0.802,-0.154
1755669097.903889,-0.254,-0.647,-0.333
1755669098.021913,-0.333,-0.415,-0.293
1755669098.131252,-0.287,-0.428,-0.329
1755669098.2431722,-0.219,-0.802,-0.164
1755669098.350415,-0.17,-1.169,-0.26
1755669098.46242,-0.434,-1.18,0.077
1755669098.5801091,-0.467,-1.307,0.125
1755669098.6936672,-0.442,-1.477,0.263
1755669098.8080158,-0.413,-1.115,0.245
1755669098.929357,-0.316,-0.908,-0.051
1755669099.056218,-0.399,-0.521,-0.382
1755669099.171669,-0.459,-0.55,-0.353
1755669099.2862568,-0.285,-0.287,-0.462
1755669099.4027,-0.208,-0.38,-0.728
1755669099.50701,-0.357,-0.589,-0.319
1755669099.624743,-0.7,-0.737,0.22
1755669099.7399812,-0.785,-1.024,0.452
1755669099.857804,-0.966,0.048,0.891
1755669099.977483,-1.028,0.194,0.815
1755669100.10111,-0.872,-0.088,0.907
1755669100.231719,-0.109,-0.594,0.496
1755669100.3433862,0.464,-1.104,0.063
1755669100.464353,0.672,-1.162,0.178
1755669100.58493,0.646,-1.039,0.217
1755669100.718729,0.494,-1.049,0.512
1755669100.832206,0.271,-0.385,0.974
1755669100.9381351,0.08,0.579,1.252
1755669101.066067,-0.242,0.46,1.376
1755669101.17485,-0.371,-0.156,0.838
1755669101.286,-0.393,-0.599,0.421
1755669101.406409,-0.094,-0.999,0.335
1755669101.582531,0.094,-0.997,0.447
1755669101.701211,0.199,-1.199,0.222
1755669101.8221672,0.531,-1.315,0.741
1755669101.943833,0.429,-0.956,0.44
1755669102.06054,0.869,-1.604,0.176
1755669102.178616,0.842,-1.121,0.711
1755669102.286248,0.326,-0.062,1.419
1755669102.394801,-0.294,0.448,1.224
1755669102.509214,-0.499,-0.503,-0.111
1755669102.6292522,-0.094,-0.811,-0.586
1755669102.7542489,0.039,-1.279,-0.822
1755669102.873649,0.031,-1.55,-0.49
1755669102.988281,-0.255,-0.702,-0.155
1755669103.1119418,-0.855,-0.036,0.203
1755669103.233719,-0.864,-0.232,0.047
1755669103.3581,-0.744,0.115,0.533
1755669103.47242,-0.684,-0.327,0.895
1755669103.598354,-0.558,-0.222,0.929
1755669103.720062,-0.373,-0.116,1.008
1755669103.8337111,-0.43,-0.147,0.945
1755669103.9496052,-0.509,-0.134,0.897
1755669104.074742,-0.502,-0.186,0.81
1755669104.190251,-0.268,-0.569,0.586
1755669104.302233,-0.413,-0.665,-0.285
1755669104.415464,-0.26,-1.121,-0.22
1755669104.5285509,-0.246,-1.195,-0.149
1755669104.6410902,-0.283,-1.061,-0.058
1755669104.753898,-0.464,-0.791,-0.205
1755669104.870074,-0.571,-0.775,-0.221
1755669104.982572,-0.672,-0.222,-0.174
1755669105.094151,-0.517,-0.125,0.235
1755669105.20859,-0.245,0.057,1.208
1755669105.3235369,-0.044,-0.071,1.306
1755669105.443119,-0.037,-0.284,1.246
1755669105.5748322,-0.184,-0.188,1.077
1755669105.723946,-0.228,-0.197,0.762
1755669105.839627,-0.264,-0.454,0.405
1755669105.944196,0.079,-1.353,-0.184
1755669106.053223,0.157,-1.471,0.088
1755669106.166252,0.073,-1.232,0.284
1755669106.276855,-0.279,-0.853,0.22
1755669106.39799,-0.584,-0.578,0.111
1755669106.516444,-0.734,-0.23,-0.284
1755669106.630026,-0.731,0.143,-0.148
1755669106.755541,-0.605,0.498,0.594
1755669106.869787,-0.361,0.739,0.973
1755669106.98719,-0.378,0.115,1.151
1755669107.101362,-0.504,-0.168,0.783
1755669107.2221398,-0.687,-0.432,0.292
1755669107.329648,-0.764,-0.507,0.008
1755669107.4441211,-0.637,-0.796,0.065
1755669107.560695,-0.487,-0.89,-0.124
1755669107.678795,-0.285,-1.017,-0.167
1755669107.7879622,-0.172,-1.185,-0.042
1755669107.917377,-0.141,-1.029,0.025
1755669108.0350668,-0.221,-1.045,0.256
1755669108.14877,-0.321,-0.956,0.445
1755669108.2725198,-0.531,-0.581,0.4
1755669108.384408,-0.711,-0.459,0.318
1755669108.500166,-0.825,-0.591,0.302
1755669108.619489,-0.841,-0.365,0.066
1755669108.723547,-0.845,-0.199,0.25
1755669108.835526,-0.773,0.012,0.74
1755669108.964722,-0.725,-0.343,0.826
1755669109.0838048,-0.647,-0.563,0.793
1755669109.214888,-0.679,-0.547,0.469
1755669109.329234,-0.742,-0.34,0.5
1755669109.456058,-0.85,-0.116,0.409
1755669109.57184,-0.931,0.166,0.084
1755669109.676526,-0.836,0.637,-0.134
1755669109.79315,-0.791,0.576,-0.356
1755669109.902061,-0.84,0.23,-0.456
1755669110.0190458,-0.906,-0.165,-0.449
1755669110.139041,-0.92,-0.543,-0.011
1755669110.2609851,-0.797,-0.819,0.294
1755669110.375458,-0.694,-0.697,0.334
1755669110.49237,-0.675,-0.605,0.514
1755669110.606303,-0.721,-0.419,0.321
1755669110.721905,-0.879,-0.478,0.313
1755669110.8571851,-0.88,-0.403,0.135
1755669110.969829,-0.868,-0.188,0.194
1755669111.091736,-0.888,-0.08,0.281
1755669111.215935,-0.876,-0.078,0.414
1755669111.324671,-0.796,0.048,0.528
1755669111.444959,-0.704,0.14,0.67
1755669111.5617652,-0.65,-0.004,0.882
1755669111.6768498,-0.614,0.121,0.867
1755669111.793205,-0.658,0.114,0.813
1755669111.908632,-0.764,-0.045,0.66
1755669112.018934,-0.822,-0.236,0.466
1755669112.126789,-0.778,-0.297,0.283
1755669112.247065,-0.673,-0.687,0.149
1755669112.359796,-0.419,-0.909,0.171
1755669112.476031,-0.147,-1.174,0.303
1755669112.588217,-0.048,-0.886,0.327
1755669112.696309,0.102,-0.902,0.245
1755669112.807543,0.224,-0.966,0.243
1755669112.927933,0.273,-0.855,0.261
1755669113.050164,0.368,-0.877,0.354
1755669113.177394,0.432,-0.798,0.314
1755669113.288835,0.427,-0.839,0.39
1755669113.406156,0.55,-0.83,0.357
1755669113.518734,0.597,-0.821,0.333
1755669113.624028,0.588,-0.751,0.31
1755669113.74429,0.682,-0.721,0.29
1755669113.865387,0.774,-0.827,0.319
1755669113.97505,0.781,-0.682,0.475
1755669114.0891578,0.889,-0.607,0.287
1755669114.210112,0.825,-0.497,0.608
1755669114.324739,0.396,-0.851,0.27
1755669114.4381828,0.003,-0.358,0.531
1755669114.565844,0.119,-0.673,0.515
1755669114.672949,0.705,-0.753,0.596
1755669114.7899652,0.894,-0.704,0.607
1755669114.902296,0.929,-0.781,0.477
1755669115.028393,0.693,-0.471,0.636
1755669115.140488,0.507,-0.546,0.626
1755669115.252741,0.266,-0.793,0.8
1755669115.369781,-0.038,-0.748,0.669
1755669115.488349,-0.31,-0.704,0.523
1755669115.627795,-0.531,-0.665,0.409
1755669115.738723,-0.687,-0.535,0.255
1755669115.85418,-0.822,-0.303,0.232
1755669115.968601,-0.88,-0.187,0.197
1755669116.073379,-0.893,0.153,0.204
1755669116.2015371,-0.912,0.55,0.427
1755669116.307036,-0.833,0.433,0.595
1755669116.417221,-0.785,-0.05,0.649
1755669116.535536,-0.728,-0.226,0.583
1755669116.651226,-0.676,-0.414,0.506
1755669116.767505,-0.563,-0.618,0.481
1755669116.885416,-0.411,-0.842,0.482
1755669116.989308,-0.296,-1.035,0.43
1755669117.103022,-0.242,-0.912,0.429
1755669117.224674,-0.186,-0.845,0.446
1755669117.331872,-0.079,-0.848,0.461
1755669117.450777,0.017,-0.853,0.626
1755669117.554655,0.062,-0.793,0.658
1755669117.667032,0.081,-0.767,0.644
1755669117.774834,0.086,-0.769,0.646
1755669117.8895528,0.072,-0.774,0.647
1755669118.005739,0.078,-0.788,0.648
1755669118.1179378,0.077,-0.778,0.668
1755669118.234722,0.08,-0.787,0.641
1755669118.350116,0.074,-0.769,0.673
1755669118.472162,0.07,-0.764,0.662
1755669118.578225,0.083,-0.777,0.664
1755669118.690266,0.11,-0.812,0.611
1755669118.8107362,0.092,-0.769,0.647
1755669118.919274,0.073,-0.772,0.635
1755669119.033895,0.079,-0.787,0.639
1755669119.1413918,0.078,-0.786,0.614
1755669119.2531111,0.083,-0.793,0.641
1755669119.361686,0.079,-0.777,0.641
1755669119.469972,0.083,-0.776,0.639
1755669119.5873952,0.081,-0.783,0.649
1755669119.702579,0.1,-0.811,0.624
1755669119.8231318,0.083,-0.779,0.623
1755669119.938418,0.1,-0.854,0.635
1755669120.055648,0.098,-0.866,0.596
1755669120.1730182,0.018,-0.735,0.683
1755669120.292809,-0.038,-0.708,0.727
1755669120.41232,-0.121,-0.482,0.869
1755669120.52118,-0.205,-0.424,0.865
1755669120.634384,-0.261,-0.301,0.902
1755669120.752797,-0.193,-0.484,0.838
1755669120.863939,-0.131,-0.548,0.814
1755669120.9928188,-0.074,-0.699,0.799
1755669121.113012,-0.01,-0.743,0.715
1755669121.22794,0.051,-0.851,0.607
1755669121.357089,0.124,-0.964,0.552
1755669121.478396,0.084,-0.854,0.633
1755669121.59262,0.021,-0.652,0.741
1755669121.701453,-0.062,-0.577,0.823
1755669121.80585,-0.184,-0.286,0.911
1755669121.930888,-0.167,-0.357,0.897
1755669122.052978,-0.075,-0.464,0.888
1755669122.169091,0.024,-0.719,0.66
1755669122.276753,0.114,-0.993,0.656
1755669122.3863392,0.093,-0.906,0.667
1755669122.502969,-0.011,-0.729,0.674
1755669122.872822,-0.129,-0.527,0.776
1755669122.985984,-0.19,-0.281,0.986
1755669123.092176,-0.151,-0.317,0.91
1755669123.205168,-0.062,-0.484,0.877
1755669123.320192,0.03,-0.738,0.671
1755669123.437036,0.124,-0.96,0.731
1755669123.550529,-0.004,-0.665,0.752
1755669123.6744618,-0.138,-0.376,0.822
1755669123.795802,-0.043,-0.702,0.759
1755669123.918677,-0.029,-0.724,0.753
1755669124.040062,-0.114,-0.578,0.803
1755669124.1634932,-0.101,-0.586,0.835
1755669124.3212612,-0.108,-0.571,0.824
1755669124.439462,-0.126,-0.539,0.847
1755669124.554007,-0.133,-0.566,0.834
1755669124.662338,-0.133,-0.568,0.835
1755669124.770527,-0.146,-0.51,0.867
1755669124.895426,-0.151,-0.488,0.875
1755669125.009527,-0.138,-0.509,0.866
1755669125.132863,-0.131,-0.541,0.852
1755669125.2722728,-0.125,-0.576,0.861
1755669125.387973,-0.113,-0.634,0.804
1755669125.506633,-0.151,-0.482,0.889
1755669125.616791,-0.165,-0.463,0.86
1755669125.739469,-0.135,-0.529,0.878
1755669125.852986,-0.141,-0.411,0.878
1755669125.9642408,-0.04,-0.615,0.904
1755669126.074238,-0.013,-0.626,0.808
1755669126.183692,-0.027,-0.598,0.859
1755669126.294673,-0.037,-0.51,0.866
1755669126.4158988,-0.053,-0.436,0.871
1755669126.531541,-0.08,-0.623,0.977
1755669126.655402,-0.001,-0.706,0.851
1755669126.77191,-0.003,-0.584,0.879
1755669126.891971,-0.047,-0.526,0.836
1755669127.0075111,0.0,-0.595,0.849
1755669127.126955,-0.018,-0.596,0.938
1755669127.234661,-0.08,-0.472,0.872
1755669127.353058,-0.092,-0.479,0.876
1755669127.479085,-0.088,-0.436,0.923
1755669127.5996091,-0.109,-0.432,0.89
1755669127.711623,-0.061,-0.501,0.864
1755669127.829098,-0.025,-0.501,0.868
1755669127.939946,-0.008,-0.499,0.823
1755669128.0476968,0.001,-0.484,0.856
1755669128.16084,0.011,-0.619,0.943
1755669128.267978,0.047,-0.509,0.887
1755669128.386784,0.079,-0.545,0.859
1755669128.5076349,0.079,-0.517,0.825
1755669128.61423,0.129,-0.578,0.853
1755669128.73807,0.035,-0.562,0.827
1755669128.853485,0.003,-0.455,0.909
1755669128.974514,-0.072,-0.312,0.985
1755669129.085126,-0.103,-0.337,0.943
1755669129.209578,-0.131,-0.322,0.792
1755669129.322455,-0.052,-0.518,0.883
1755669129.437763,-0.038,-0.319,0.913
1755669129.550602,-0.003,-0.366,1.143
1755669129.678566,0.072,-0.271,1.367
1755669129.802026,0.077,-0.308,1.235
1755669129.917257,0.01,-0.408,1.017
1755669130.041172,-0.023,-0.552,0.843
1755669130.378387,-0.061,-0.504,0.76
1755669130.494218,-0.128,-0.457,0.797
1755669130.631683,-0.203,-0.44,0.815
1755669130.7468622,-0.261,-0.5,0.754
1755669130.871685,-0.287,-0.485,0.725
1755669130.992248,-0.358,-0.456,0.639
1755669131.119665,-0.349,-0.618,0.694
1755669131.229745,-0.37,-0.683,0.835
1755669131.344994,-0.389,-0.583,0.832
1755669131.470706,-0.4,-0.604,0.696
1755669131.587053,-0.407,-0.581,0.67
1755669131.699836,-0.445,-0.612,0.641
1755669131.822412,-0.474,-0.579,0.634
1755669131.939421,-0.506,-0.596,0.589
1755669132.071081,-0.513,-0.634,0.649
1755669132.185139,-0.494,-0.607,0.688
1755669132.303096,-0.543,-0.58,0.62
1755669132.407596,-0.575,-0.557,0.525
1755669132.519647,-0.58,-0.634,0.554
1755669132.637718,-0.577,-0.586,0.609
1755669132.759436,-0.619,-0.552,0.503
1755669132.866163,-0.625,-0.596,0.526
1755669132.983459,-0.655,-0.575,0.517
1755669133.093357,-0.668,-0.526,0.519
1755669133.214203,-0.675,-0.491,0.469
1755669133.334542,-0.675,-0.505,0.493
1755669133.4515042,-0.66,-0.589,0.619
1755669133.57023,-0.656,-0.485,0.591
1755669133.696925,-0.685,-0.527,0.472
1755669133.8188071,-0.685,-0.469,0.524
1755669133.93421,-0.662,-0.529,0.593
1755669134.043437,-0.645,-0.516,0.571
1755669134.157114,-0.647,-0.493,0.523
1755669134.2807271,-0.619,-0.569,0.562
1755669134.392849,-0.584,-0.62,0.49
1755669134.513898,-0.533,-0.425,0.321
1755669134.636312,-0.289,-0.655,0.339
1755669134.742473,0.031,-0.719,0.531
1755669134.859898,0.18,-0.93,0.302
1755669134.9705868,0.363,-1.211,0.319
1755669135.0926569,0.411,-1.366,0.52
1755669135.206634,0.308,-0.988,0.419
1755669135.319181,0.191,-0.914,0.538
1755669135.425555,0.145,-0.601,0.518
1755669135.5388129,0.164,-0.635,0.478
1755669135.660506,0.179,-0.704,0.323
1755669135.77172,0.238,-0.709,0.473
1755669135.88526,0.36,-0.929,0.585
1755669136.0031848,0.347,-0.835,0.605
1755669136.112768,0.318,-0.8,0.614
1755669136.223698,0.236,-0.636,0.497
1755669136.340252,0.257,-0.746,0.537
1755669136.457328,0.311,-0.818,0.647
1755669136.574028,0.404,-1.183,0.858
1755669136.692061,0.291,-1.001,0.773
1755669136.8083572,0.003,-0.661,0.533
1755669136.923798,-0.107,-0.585,0.442
1755669137.035274,-0.2,-0.651,0.424
1755669137.1503732,-0.243,-0.885,0.418
1755669137.2708092,-0.308,-0.919,0.283
1755669137.385421,-0.361,-0.892,0.232
1755669137.511988,-0.439,-0.81,0.131
1755669137.625623,-0.505,-0.727,0.186
1755669137.749815,-0.529,-0.691,0.191
1755669137.856588,-0.521,-0.794,0.245
1755669137.9695418,-0.479,-0.819,0.297
1755669138.09474,-0.411,-0.752,0.316
1755669138.207297,-0.323,-0.781,0.402
1755669138.318493,-0.184,-0.694,0.348
1755669138.432801,-0.09,-0.571,0.369
1755669138.543364,0.123,-0.769,0.56
1755669138.6598349,0.406,-1.195,0.907
1755669138.7862349,0.479,-1.33,0.99
1755669138.9013429,0.113,-0.746,0.665
1755669139.0206091,-0.161,-0.695,0.385
1755669139.1357498,-0.314,-0.785,0.288
1755669139.2423491,-0.492,-0.418,0.052
1755669139.367043,-0.54,-0.387,-0.082
1755669139.488916,-0.362,-0.23,0.339
1755669139.603196,-0.045,-0.698,0.549
1755669139.719011,-0.023,-0.921,0.23
1755669139.823273,0.13,-1.27,0.08
1755669139.9329212,-0.011,-0.667,0.168
1755669140.0472488,-0.107,-0.755,0.067
1755669140.157246,0.31,-1.135,0.202
1755669140.2696462,0.28,-0.935,0.152
1755669140.3781152,0.441,-0.986,0.023
1755669140.490384,0.347,-0.906,-0.096
1755669140.605303,0.325,-0.82,-0.179
1755669140.718412,0.241,-0.806,-0.401
1755669445.3494542,0.081,-0.827,-0.553
1755669445.6294882,0.081,-0.826,-0.557
1755669445.771402,0.081,-0.828,-0.556
1755669445.8929431,0.081,-0.826,-0.556
1755669446.00828,0.082,-0.826,-0.558
1755669446.1258051,0.079,-0.829,-0.551
1755669446.25552,0.084,-0.827,-0.554
1755669446.372766,0.083,-0.826,-0.554
1755669446.494459,0.069,-0.828,-0.547
1755669446.612268,0.083,-0.833,-0.551
1755669446.7355368,0.082,-0.835,-0.552
1755669446.859485,0.086,-0.831,-0.544
1755669446.98623,0.084,-0.832,-0.549
1755669447.103982,0.085,-0.832,-0.545
1755669447.2213,0.084,-0.834,-0.543
1755669447.3409688,0.086,-0.835,-0.542
1755669447.464622,0.086,-0.834,-0.545
1755669447.587328,0.084,-0.835,-0.543
1755669447.705527,0.086,-0.835,-0.541
1755669447.818166,0.088,-0.832,-0.545
1755669447.938354,0.082,-0.83,-0.552
1755669448.061888,0.084,-0.83,-0.542
1755669448.178234,0.089,-0.833,-0.538
1755669448.304752,0.085,-0.832,-0.553
1755669448.41925,0.08,-0.838,-0.536
1755669448.537132,0.092,-0.833,-0.545
1755669448.656422,0.083,-0.831,-0.549
1755669448.78481,0.088,-0.835,-0.54
1755669448.899913,0.086,-0.837,-0.537
1755669449.013778,0.088,-0.834,-0.543
1755669449.132372,0.082,-0.836,-0.541
1755669449.250394,0.088,-0.834,-0.545
1755669449.375437,0.087,-0.834,-0.544
1755669449.4953349,0.085,-0.838,-0.538
1755669449.609942,0.087,-0.834,-0.544
1755669449.718879,0.086,-0.835,-0.541
1755669449.835843,0.087,-0.834,-0.545
1755669449.95253,0.086,-0.836,-0.54
1755669450.071551,0.087,-0.835,-0.544
1755669450.183807,0.086,-0.834,-0.542
1755669450.2859788,0.087,-0.834,-0.541
1755669450.389457,0.086,-0.834,-0.544
1755669450.501707,0.084,-0.834,-0.543
1755669450.617114,0.086,-0.833,-0.546
1755669450.7383602,0.086,-0.833,-0.546
1755669450.859194,0.086,-0.835,-0.544
1755669450.978436,0.085,-0.833,-0.544
1755669451.094572,0.085,-0.833,-0.544
1755669451.217702,0.085,-0.832,-0.549
1755669451.3306618,0.086,-0.834,-0.543
1755669451.441474,0.086,-0.833,-0.547
1755669451.557178,0.084,-0.835,-0.543
1755669451.679704,0.087,-0.833,-0.546
1755669451.8058538,0.085,-0.833,-0.547
1755669451.922977,0.087,-0.833,-0.545
1755669452.0361412,0.084,-0.833,-0.546
1755669452.148626,0.084,-0.833,-0.546
1755669452.268469,0.084,-0.833,-0.547
1755669452.383566,0.086,-0.832,-0.545
1755669452.491105,0.086,-0.832,-0.549
1755669452.6100512,0.086,-0.834,-0.542
1755669452.732404,0.086,-0.833,-0.547
1755669452.851688,0.086,-0.834,-0.544
1755669452.971103,0.086,-0.833,-0.545
1755669453.094523,0.085,-0.834,-0.544
1755669453.2201622,0.087,-0.832,-0.547
1755669453.3456872,0.084,-0.834,-0.544
1755669453.464611,0.086,-0.833,-0.547
1755669453.581127,0.085,-0.834,-0.546
1755669453.704095,0.085,-0.834,-0.546
1755669453.822704,0.085,-0.833,-0.545
1755669453.94516,0.086,-0.833,-0.544
1755669454.058966,0.086,-0.834,-0.545
1755669454.171959,0.087,-0.834,-0.542
1755669454.292007,0.086,-0.834,-0.545
1755669454.4118662,0.086,-0.834,-0.543
1755669454.5333672,0.086,-0.832,-0.546
1755669454.673496,0.086,-0.833,-0.544
1755669454.784651,0.085,-0.834,-0.545
1755669454.900077,0.086,-0.833,-0.545
1755669455.0228312,0.086,-0.833,-0.544
1755669455.139335,0.085,-0.833,-0.546
1755669455.249227,0.086,-0.833,-0.543
1755669455.3669949,0.085,-0.834,-0.543
1755669455.482601,0.085,-0.834,-0.545
1755669455.602615,0.085,-0.834,-0.544
1755669455.7198222,0.086,-0.834,-0.544
1755669455.835526,0.087,-0.834,-0.543
1755669455.9450629,0.085,-0.835,-0.543
1755669456.064252,0.087,-0.834,-0.543
1755669456.17638,0.086,-0.834,-0.544
1755669456.296561,0.087,-0.834,-0.544
1755669456.408059,0.085,-0.834,-0.544
1755669456.526183,0.086,-0.834,-0.545
1755669456.640307,0.087,-0.833,-0.543
1755669456.776916,0.086,-0.834,-0.543
1755669456.888276,0.087,-0.834,-0.544
1755669456.995426,0.087,-0.834,-0.544
1755669457.11407,0.086,-0.833,-0.545
1755669457.226801,0.086,-0.834,-0.544
1755669457.335486,0.088,-0.834,-0.543
1755669457.457983,0.088,-0.833,-0.544
1755669457.578514,0.085,-0.836,-0.542
1755669457.69268,0.087,-0.834,-0.542
1755669457.8141189,0.085,-0.834,-0.546
1755669457.941818,0.087,-0.832,-0.547
1755669458.0578508,0.086,-0.834,-0.544
1755669458.176494,0.085,-0.834,-0.542
1755669458.295955,0.087,-0.834,-0.544
1755669458.414745,0.085,-0.835,-0.543
1755669458.532256,0.088,-0.833,-0.545
1755669458.652134,0.085,-0.834,-0.543
1755669458.7667682,0.087,-0.833,-0.545
1755669458.89907,0.086,-0.834,-0.543
1755669459.023584,0.087,-0.833,-0.545
1755669459.1398,0.086,-0.835,-0.543
1755669459.252854,0.086,-0.834,-0.545
1755669459.370681,0.085,-0.835,-0.544
1755669459.484669,0.087,-0.833,-0.545
1755669459.603435,0.085,-0.833,-0.545
1755669459.712331,0.086,-0.834,-0.545
1755669459.828662,0.086,-0.833,-0.544
1755669459.952534,0.085,-0.833,-0.544
1755669460.065717,0.086,-0.834,-0.545
1755669460.1888142,0.086,-0.835,-0.544
1755669460.310533,0.085,-0.834,-0.545
1755669460.42433,0.086,-0.834,-0.543
1755669460.542251,0.086,-0.833,-0.545
1755669460.661608,0.086,-0.834,-0.542
1755669460.775331,0.087,-0.835,-0.543
1755669460.900335,0.087,-0.834,-0.543
1755669461.016573,0.086,-0.835,-0.543
1755669461.130871,0.087,-0.834,-0.545
1755669461.241441,0.087,-0.835,-0.543
1755669461.353928,0.086,-0.834,-0.543
1755669461.469098,0.086,-0.835,-0.542
1755669461.588448,0.086,-0.835,-0.544
1755669461.701304,0.086,-0.836,-0.543
1755669461.8187048,0.087,-0.834,-0.545
1755669461.927361,0.087,-0.834,-0.544
1755669462.0387468,0.087,-0.834,-0.544
1755669462.144428,0.087,-0.834,-0.543
1755669462.27749,0.085,-0.834,-0.542
1755669462.386061,0.087,-0.835,-0.544
1755669462.499938,0.087,-0.834,-0.545
1755669462.614926,0.086,-0.833,-0.544
1755669462.735828,0.088,-0.833,-0.545
1755669462.852198,0.085,-0.837,-0.541
1755669462.96792,0.086,-0.834,-0.546
1755669463.07786,0.085,-0.833,-0.549
1755669463.197324,0.087,-0.832,-0.547
1755669466.0251908,-0.039,0.122,1.12
1755669466.272449,-0.065,0.138,1.176
1755669466.389163,-0.006,0.255,1.036
1755669466.5081532,0.019,0.275,0.983
1755669466.626613,0.072,0.141,1.013
1755669466.735615,0.057,0.288,0.985
1755669466.8618822,0.038,0.19,1.035
1755669466.980538,0.083,0.17,1.018
1755669467.0994198,0.08,0.227,0.907
1755669467.218402,0.103,0.166,0.935
1755669467.3323798,0.081,0.133,1.02
1755669467.4558232,0.062,0.081,1.029
1755669467.579062,0.066,0.115,1.03
1755669467.6931908,0.082,0.139,0.999
1755669467.806313,0.102,0.14,0.954
1755669467.9210088,0.154,0.047,0.996
1755669468.0289,0.156,0.014,1.016
1755669468.166873,0.199,-0.012,1.021
1755669468.284678,0.203,-0.006,0.99
1755669468.419753,0.217,-0.022,0.983
1755669468.53881,0.231,-0.047,1.005
1755669468.65116,0.24,-0.058,0.997
1755669468.768467,0.246,-0.038,1.007
1755669468.895966,0.244,-0.03,0.979
1755669469.016394,0.259,-0.025,0.991
1755669469.1267462,0.25,-0.028,0.993
1755669469.240376,0.249,-0.039,0.99
1755669469.356343,0.243,-0.031,0.99
1755669469.47682,0.25,-0.027,0.992
1755669469.58801,0.247,-0.03,0.987
1755669469.7084858,0.245,-0.035,1.005
1755669469.827017,0.245,-0.022,0.982
1755669469.938445,0.241,-0.022,1.002
1755669470.058358,0.246,-0.039,0.994
1755669470.166991,0.239,-0.026,1.001
1755669470.281711,0.222,-0.081,1.015
1755669470.3954618,0.199,-0.099,1.026
1755669470.50657,0.143,-0.037,1.027
1755669470.6270452,0.14,-0.104,1.019
1755669470.735323,0.11,-0.127,1.012
1755669470.851739,0.089,-0.122,0.982
1755669470.9696908,0.07,-0.214,1.02
1755669471.085035,-0.033,-0.241,1.092
1755669471.203834,-0.074,-0.193,1.047
1755669471.323704,-0.104,-0.153,0.956
1755669471.440129,-0.177,-0.153,0.94
1755669471.561627,-0.237,-0.106,0.845
1755669471.6685271,-0.194,-0.257,0.989
1755669471.7833369,-0.187,-0.267,0.96
1755669471.89403,-0.171,-0.305,0.967
1755669472.002371,-0.182,-0.289,0.962
1755669472.119541,-0.2,-0.279,0.964
1755669472.246567,-0.202,-0.277,0.96
1755669472.364819,-0.204,-0.305,0.976
1755669472.479422,-0.188,-0.317,0.974
1755669472.598463,-0.212,-0.318,0.972
1755669472.7113469,-0.221,-0.396,0.921
1755669472.820042,-0.212,-0.425,0.899
1755669472.927149,-0.256,-0.455,0.846
1755669473.044071,-0.272,-0.522,0.816
1755669473.161276,-0.337,-0.574,0.733
1755669473.271091,-0.358,-0.612,0.71
1755669473.391714,-0.383,-0.691,0.716
1755669473.500513,-0.399,-0.75,0.749
1755669473.622609,-0.252,-0.779,0.854
1755669473.735318,-0.221,-0.854,1.026
1755669473.838031,-0.252,-0.601,0.899
1755669473.9443252,-0.08,-0.74,0.588
1755669474.058583,-0.605,-0.393,0.031
1755669474.180639,-0.466,-0.733,0.261
1755669474.295479,-0.44,-0.759,0.39
1755669474.410996,-0.403,-0.785,0.482
1755669474.521146,-0.37,-0.817,0.456
1755669474.648889,-0.394,-0.828,0.479
1755669474.76535,-0.437,-0.783,0.498
1755669474.886793,-0.463,-0.74,0.475
1755669475.00396,-0.432,-0.769,0.477
1755669475.122695,-0.425,-0.778,0.493
1755669475.2393658,-0.408,-0.794,0.462
1755669475.355907,-0.391,-0.798,0.476
1755669475.4790678,-0.384,-0.803,0.471
1755669475.589932,-0.407,-0.778,0.456
1755669475.697453,-0.408,-0.778,0.44
1755669475.824115,-0.408,-0.631,0.413
1755669475.943551,-0.213,-0.696,0.325
1755669476.070836,-0.061,-0.728,0.147
1755669476.192251,0.213,-0.645,0.253
1755669476.3067892,-0.017,-0.32,-0.049
1755669476.4216151,0.058,-0.114,1.008
1755669476.540054,0.153,-0.255,1.466
1755669476.654286,0.499,-0.703,1.922
1755669476.782596,0.296,-0.658,1.327
1755669476.896762,0.337,-0.566,0.858
1755669477.0211048,0.316,-0.516,0.926
1755669477.136106,0.248,-0.402,0.891
1755669477.25763,0.208,-0.368,0.916
1755669477.372841,0.271,-0.476,0.833
1755669477.4852202,0.277,-0.503,0.835
1755669477.59501,0.261,-0.519,0.839
1755669477.706956,0.226,-0.462,0.851
1755669477.819523,0.192,-0.463,0.874
1755669477.9372852,0.179,-0.5,0.834
1755669478.0544598,0.177,-0.489,0.877
1755669478.171626,0.17,-0.469,0.875
1755669478.284933,0.166,-0.488,0.889
1755669478.3979871,0.176,-0.51,0.885
1755669478.5193758,0.153,-0.479,0.89
1755669478.6283462,0.143,-0.481,0.901
1755669478.739577,0.131,-0.467,0.886
1755669478.855626,0.132,-0.492,0.897
1755669478.9692218,0.117,-0.493,0.903
1755669479.086674,0.117,-0.479,0.879
1755669479.202877,0.102,-0.468,0.899
1755669479.311626,0.1,-0.456,0.895
1755669479.426711,0.087,-0.496,0.909
1755669479.531586,0.051,-0.529,0.928
1755669479.649291,-0.03,-0.567,1.07
1755669479.763663,0.035,-0.703,0.947
1755669479.8739352,0.09,-1.084,0.893
1755669479.98395,-0.464,-0.214,0.801
1755669480.103957,-0.583,-0.328,1.006
1755669480.222194,-0.673,-0.212,0.675
1755669480.337934,-0.585,-0.35,0.571
1755669480.451801,-0.27,-0.55,-0.046
1755669480.565013,-0.064,-0.982,0.313
1755669480.6857688,0.168,-1.18,0.575
1755669480.798414,0.281,-0.827,0.48
1755669480.911881,0.262,-0.897,0.66
1755669481.019666,0.349,-0.938,0.587
1755669481.135646,0.303,-0.917,0.527
1755669481.247475,0.155,-0.799,0.558
1755669481.381936,0.162,-0.834,0.603
1755669481.502816,0.259,-0.899,0.554
1755669481.6155589,0.135,-0.827,0.683
1755669481.7316532,-0.048,-0.735,0.663
1755669481.837258,0.05,-0.797,0.664
1755669481.9493172,0.044,-0.784,0.692
1755669482.06027,0.002,-0.736,0.642
1755669482.177282,0.031,-0.779,0.656
1755669482.2876532,0.06,-0.764,0.69
1755669482.461333,0.053,-0.768,0.639
1755669482.5857742,0.04,-0.764,0.67
1755669482.704531,0.062,-0.775,0.652
1755669482.833515,0.046,-0.772,0.697
1755669482.963174,0.052,-0.76,0.646
1755669483.071085,0.052,-0.754,0.68
1755669483.196353,0.047,-0.761,0.672
1755669483.3122911,0.061,-0.776,0.677
1755669483.429805,0.056,-0.768,0.651
1755669483.553154,0.047,-0.77,0.672
1755669483.6637871,0.067,-0.784,0.66
1755669483.779998,0.04,-0.755,0.654
1755669483.891712,0.048,-0.762,0.664
1755669484.013843,0.06,-0.766,0.664
1755669484.122848,0.06,-0.771,0.678
1755669484.236306,0.032,-0.761,0.652
1755669484.372349,0.023,-0.752,0.678
1755669484.503847,0.029,-0.805,0.68
1755669484.615641,0.007,-0.831,0.497
1755669484.765909,-0.006,-0.724,0.528
1755669484.881506,-0.059,-0.684,0.813
1755669485.006471,0.021,-0.634,0.796
1755669485.131265,-0.02,-0.525,0.932
1755669485.252188,0.01,-0.918,1.095
1755669485.3695402,0.146,-1.077,1.381
1755669485.488738,-0.122,-0.92,0.737
1755669485.597902,-0.387,-0.768,0.515
1755669485.705867,-0.123,-0.483,0.637
1755669485.827732,-0.155,-0.27,0.683
1755669485.946474,-0.538,-0.548,0.198
1755669486.060763,-0.398,-0.796,0.227
1755669486.182974,-0.353,-0.855,0.243
1755669486.3087308,-0.337,-0.863,0.34
1755669486.426524,-0.345,-0.826,0.441
1755669486.547683,-0.319,-0.883,0.428
1755669486.6686752,-0.383,-0.815,0.412
1755669486.795302,-0.393,-0.815,0.455
1755669486.950366,-0.377,-0.817,0.496
1755669487.069935,-0.35,-0.836,0.435
1755669487.1865568,-0.341,-0.827,0.417
1755669487.312459,-0.328,-0.837,0.441
1755669487.423609,-0.322,-0.86,0.458
1755669487.546312,-0.319,-0.841,0.496
1755669487.6584902,-0.304,-0.846,0.453
1755669487.768831,-0.299,-0.848,0.47
1755669487.89404,-0.312,-0.849,0.484
1755669488.00384,-0.328,-0.832,0.483
1755669488.120141,-0.318,-0.827,0.494
1755669488.239782,-0.291,-0.843,0.446
1755669488.350526,-0.309,-0.803,0.432
1755669488.4599638,-0.366,-0.595,0.495
1755669488.575656,-0.169,-0.526,0.32
1755669488.689012,0.195,-0.79,0.162
1755669488.804019,0.366,-1.391,0.624
1755669488.9130769,0.0,-0.935,0.5
1755669489.034408,-0.102,-0.762,0.775
1755669489.157741,-0.126,-0.804,0.809
1755669489.262659,-0.126,-0.701,0.854
1755669489.37929,-0.133,-0.711,0.952
1755669489.552258,-0.042,-0.69,0.781
1755669489.768285,0.004,-0.706,0.821
1755669489.88204,0.055,-0.76,0.801
1755669490.00101,-0.014,-0.715,0.726
1755669490.138245,0.013,-0.8,0.672
1755669490.2687948,-0.002,-0.794,0.65
1755669490.3911018,0.015,-0.841,0.584
1755669490.5212622,0.029,-0.909,0.505
1755669490.643733,0.018,-0.893,0.451
1755669490.766803,0.035,-0.942,0.406
1755669490.8940852,0.029,-0.94,0.336
1755669491.1213892,0.032,-0.96,0.3
1755669491.23581,0.034,-0.964,0.253
1755669491.3528168,0.061,-1.006,0.232
1755669491.469724,0.046,-0.985,0.219
1755669491.587082,0.041,-0.987,0.229
1755669491.728323,0.034,-1.002,0.239
1755669491.858496,0.042,-0.995,0.21
1755669491.9858282,0.029,-0.986,0.23
1755669492.10614,0.001,-0.974,0.245
1755669492.2247272,-0.057,-0.912,0.408
1755669492.339129,-0.19,-0.893,0.51
1755669492.464628,-0.304,-0.776,0.499
1755669492.580492,-0.365,-0.778,0.351
1755669492.701692,-0.363,-0.768,0.488
1755669492.825132,-0.333,-0.767,0.486
1755669492.9397728,-0.292,-0.845,0.555
1755669493.053129,-0.261,-0.804,0.5
1755669493.176995,-0.21,-0.782,0.516
1755669493.294925,-0.184,-0.71,0.5
1755669493.4078789,-0.053,-0.855,0.516
1755669493.522869,-0.032,-0.867,0.553
1755669493.632631,-0.005,-0.793,0.443
1755669493.754456,0.085,-0.895,0.57
1755669493.869659,0.053,-0.827,0.578
1755669493.990721,0.171,-0.925,0.875
1755669494.110078,-0.135,-0.837,0.642
1755669494.222812,-0.274,-0.745,0.644
1755669494.343251,-0.333,-0.573,0.75
1755669494.4700348,-0.301,-0.549,0.714
1755669494.591412,-0.314,-0.657,0.805
1755669494.710484,-0.344,-0.576,0.815
1755669494.824556,-0.334,-0.499,0.759
1755669494.941623,-0.32,-0.461,0.83
1755669495.0590148,-0.338,-0.391,0.895
1755669495.181138,-0.337,0.023,0.885
1755669495.294147,-0.388,0.241,0.864
1755669495.412656,-0.438,0.481,0.759
1755669495.530567,-0.449,0.563,0.693
1755669495.648602,-0.461,0.522,0.598
1755669495.754981,-0.42,0.515,0.745
1755669495.874133,-0.407,0.549,0.686
1755669495.9970272,-0.358,0.461,0.78
1755669496.1196969,-0.358,0.472,0.705
1755669496.236039,-0.317,0.427,0.815
1755669496.357323,-0.296,0.455,0.8
1755669496.478836,-0.279,0.385,0.87
1755669496.593284,-0.237,0.364,0.853
1755669496.706316,-0.179,0.306,1.009
1755669496.839522,-0.135,0.258,0.987
1755669496.9463549,-0.098,0.196,0.95
1755669497.064063,-0.088,0.234,0.957
1755669497.185704,-0.079,0.254,1.011
1755669497.30241,-0.087,0.329,1.089
1755669497.413497,-0.113,0.327,1.113
1755669497.5363169,-0.121,0.209,1.193
1755669497.654753,-0.22,0.313,1.017
1755669497.770842,-0.271,0.292,0.98
1755669497.887638,-0.307,0.232,0.943
1755669498.0050938,-0.332,0.16,0.879
1755669498.121868,-0.394,0.213,0.894
1755669498.231712,-0.506,0.178,1.007
1755669498.3483598,-0.539,0.168,0.934
1755669498.4577029,-0.552,0.13,0.729
1755669498.5721889,-0.572,-0.047,0.719
1755669498.686172,-0.549,-0.084,0.724
1755669498.8000388,-0.604,-0.057,0.773
1755669498.9107509,-0.597,-0.058,0.782
1755669499.024114,-0.554,-0.03,0.81
1755669499.131022,-0.542,-0.129,0.843
1755669499.250031,-0.552,-0.14,0.798
1755669644.319464,-0.785,-0.447,0.444
1755669644.590062,-0.771,-0.514,0.417
1755669644.728908,-0.786,-0.495,0.403
1755669644.88929,-0.779,-0.496,0.404
1755669645.019546,-0.774,-0.499,0.404
1755669645.1378229,-0.775,-0.492,0.409
1755669645.2556689,-0.779,-0.493,0.378
1755669645.373727,-0.772,-0.524,0.418
1755669645.501591,-0.78,-0.491,0.377
1755669645.6232278,-0.77,-0.514,0.412
1755669645.749065,-0.755,-0.552,0.364
1755669645.8887382,-0.753,-0.572,0.369
1755669646.0428648,-0.76,-0.551,0.4
1755669646.164042,-0.752,-0.574,0.373
1755669646.2875872,-0.755,-0.542,0.351
1755669646.406886,-0.749,-0.549,0.367
1755669646.535645,-0.756,-0.549,0.356
1755669646.695369,-0.757,-0.544,0.365
1755669646.828809,-0.756,-0.558,0.37
1755669646.95645,-0.751,-0.564,0.344
1755669647.089198,-0.756,-0.552,0.375
1755669647.20831,-0.758,-0.552,0.354
1755669647.331372,-0.754,-0.566,0.373
1755669647.450293,-0.759,-0.548,0.358
1755669647.5878148,-0.758,-0.56,0.354
1755669647.704148,-0.756,-0.549,0.377
1755669647.8287098,-0.754,-0.562,0.353
1755669647.94723,-0.758,-0.548,0.343
1755669648.07351,-0.754,-0.563,0.365
1755669648.194037,-0.758,-0.57,0.387
1755669648.312993,-0.774,-0.444,0.363
1755669648.434017,-0.694,-0.521,0.449
1755669648.56528,-0.498,-0.647,0.772
1755669648.6861372,-0.252,-0.575,0.892
1755669648.806622,-0.08,-0.516,0.835
1755669648.923397,0.034,-0.359,1.02
1755669649.0518851,0.016,-0.21,1.027
1755669649.17471,-0.149,-0.126,1.002
1755669649.295917,-0.421,0.054,0.861
1755669649.425729,-0.677,0.113,0.67
1755669649.549155,-0.809,0.091,0.638
1755669649.681828,-0.888,-0.075,0.401
1755669649.812833,-0.93,-0.134,0.281
1755669649.934748,-0.964,-0.164,0.105
1755669650.0534348,-0.971,-0.236,0.091
1755669650.1748748,-0.83,-0.192,0.146
1755669650.306963,-0.541,-0.18,0.877
1755669650.4233248,-0.392,-0.038,0.974
1755669650.546193,-0.26,0.105,1.081
1755669650.6729012,-0.354,0.071,0.993
1755669650.7990952,-0.557,-0.089,0.724
1755669650.924093,-0.754,-0.135,0.526
1755669651.050207,-0.528,-0.078,0.579
1755669651.16329,-0.375,-0.061,0.94
1755669651.3031108,-0.309,0.089,1.153
1755669651.425084,-0.445,-0.004,1.026
1755669651.5447822,-0.688,-0.168,0.74
1755669651.656343,-0.742,-0.168,0.667
1755669651.7790852,-0.495,-0.04,0.805
1755669651.899016,-0.258,0.048,1.177
1755669652.017793,-0.277,0.048,1.131
1755669652.1426618,-0.53,-0.106,1.007
1755669652.2636118,-0.768,-0.168,0.557
1755669652.38867,-0.859,-0.336,0.44
1755669652.5016289,-0.4,-0.457,1.203
1755669652.668751,-0.308,-0.041,1.482
1755669652.801652,-0.503,-0.337,0.621
1755669652.917542,-0.826,-0.362,0.232
1755669653.041556,-0.83,-0.271,0.58
1755669653.1589508,-0.435,-0.396,1.522
1755669653.272269,-0.179,0.149,1.721
1755669653.395817,-0.492,-0.175,1.107
1755669653.51046,-0.772,-0.455,0.203
1755669653.63308,-0.779,-0.534,0.513
1755669653.764852,-0.286,-0.367,1.296
1755669653.884464,-0.274,-0.249,0.965
1755669654.011891,-0.442,-0.419,0.535
1755669654.136338,-0.767,-0.271,0.261
1755669654.253658,-0.775,-0.537,-0.455
1755669654.380291,-0.377,-0.439,0.304
1755669654.507617,-0.222,-0.491,1.203
1755669654.64639,-0.365,-0.366,0.968
1755669654.7860942,-0.705,-0.343,0.067
1755669654.921189,-0.687,-0.599,0.196
1755669655.0399098,-0.142,-0.492,0.904
1755669655.15913,-0.26,-0.422,1.293
1755669655.282089,-0.441,-0.497,0.587
1755669655.397475,-0.678,-0.461,-0.293
1755669655.51882,-0.639,-0.742,0.589
1755669655.6486678,-0.345,-0.474,0.661
1755669655.766571,-0.187,-0.335,1.486
1755669655.9002502,-0.46,-0.515,1.046
1755669656.020525,-0.524,-0.732,-0.219
1755669656.1443598,-0.589,-0.574,0.4
1755669656.268028,-0.294,-0.392,0.933
1755669656.388196,-0.076,-0.122,1.613
1755669656.532043,-0.652,-0.599,0.443
1755669656.654434,-0.671,-0.589,-0.406
1755669656.7750368,-0.567,-0.709,-0.132
1755669656.8988092,-0.222,-0.651,0.853
1755669657.0212202,-0.136,-0.365,1.456
1755669657.136246,-0.507,-0.721,0.824
1755669657.257895,-0.595,-0.324,-0.684
1755669657.445188,-0.423,-0.542,0.409
1755669657.567966,-0.115,-0.625,0.939
1755669657.689333,-0.067,-0.412,1.366
1755669657.804812,-0.338,-0.584,0.244
1755669657.941903,-0.277,-0.719,0.426
1755669658.068776,-0.07,-0.624,1.44
1755669658.187744,0.016,-0.643,1.348
1755669658.308212,-0.312,-0.548,0.868
1755669658.4287932,-0.55,-0.479,-0.088
1755669658.552019,-0.273,-0.575,0.798
1755669658.673106,-0.226,-0.609,1.385
1755669658.794943,-0.435,-0.497,0.997
1755669658.913816,-0.556,-0.558,-0.338
1755669659.034098,-0.441,-0.772,0.548
1755669659.16098,-0.183,-0.664,1.235
1755669659.278784,-0.177,-0.619,0.958
1755669659.398193,-0.394,-0.574,0.438
1755669659.5450292,-0.608,-0.566,-0.386
1755669659.659919,-0.307,-0.598,0.385
1755669659.782374,-0.203,-0.591,1.817
1755669659.891566,-0.301,-0.636,1.427
1755669660.0134962,-0.57,-0.553,-0.217
1755669660.140557,-0.475,-0.595,0.124
1755669660.256626,-0.241,-0.584,1.323
1755669660.375985,-0.236,-0.52,1.084
1755669660.5156832,-0.48,-0.567,-0.475
1755669660.634648,-0.151,-0.736,0.069
1755669660.757706,0.003,-0.716,1.675
1755669660.881293,0.075,-0.65,1.019
1755669660.998631,-0.125,-0.62,0.733
1755669661.124191,-0.344,-0.732,-0.21
1755669661.239975,-0.005,-0.687,1.125
1755669661.372805,-0.029,-0.73,0.916
1755669661.490001,-0.021,-0.68,1.042
1755669661.614484,-0.552,-0.367,-0.369
1755669661.734878,-0.188,-0.547,0.804
1755669661.866975,-0.08,-0.652,1.809
1755669661.988377,-0.117,-0.788,1.011
1755669662.102761,-0.511,-0.49,-0.618
1755669662.214752,-0.229,-0.497,0.627
1755669662.334697,-0.132,-0.707,2.038
1755669662.453164,-0.215,-0.624,1.09
1755669662.576571,-0.504,-0.529,-0.249
1755669662.701151,0.036,-0.592,0.54
1755669662.86207,0.036,-0.659,2.353
1755669662.9869308,-0.104,-0.762,0.977
1755669663.107693,-0.401,-0.57,-0.507
1755669663.263245,-0.064,-0.706,0.062
1755669663.400909,-0.077,-0.716,1.724
1755669663.529325,0.016,-0.719,1.292
1755669663.6472,-0.267,-0.741,-0.305
1755669663.7630851,-0.326,-0.732,0.077
1755669663.8830552,-0.173,-0.837,1.436
1755669664.007971,-0.118,-0.7,1.604
1755669664.11905,-0.279,-0.769,0.247
1755669664.2404108,-0.422,-0.763,-0.203
1755669664.37779,-0.047,-0.88,1.005
1755669664.48571,-0.101,-0.801,1.424
1755669664.601027,-0.085,-0.785,1.119
1755669664.7222989,-0.534,-0.556,-0.283
1755669664.848149,-0.109,-0.722,0.48
1755669664.962508,-0.016,-0.898,1.12
1755669665.081902,-0.031,-0.801,1.12
1755669665.1964831,-0.339,-0.612,0.249
1755669665.312004,-0.547,-0.639,0.124
1755669665.4369469,0.078,-0.962,0.91
1755669665.561774,-0.104,-0.824,0.979
1755669665.686058,-0.134,-0.688,1.197
1755669665.811136,-0.541,-0.474,-0.4
1755669665.945652,-0.202,-0.682,0.242
1755669666.075093,-0.148,-0.755,1.56
1755669666.195732,-0.092,-0.739,0.947
1755669666.312939,-0.372,-0.672,-0.132
1755669666.432791,-0.226,-0.816,0.028
1755669666.5579991,-0.094,-0.857,1.642
1755669666.677688,-0.05,-0.771,0.994
1755669666.799093,-0.421,-0.635,-0.29
1755669666.911917,-0.163,-0.834,0.037
1755669667.031689,-0.12,-0.746,1.283
1755669667.152391,0.098,-0.775,1.3
1755669667.2676852,-0.369,-0.734,-0.104
1755669667.383428,-0.295,-0.787,-0.102
1755669667.592673,-0.076,-0.758,1.372
1755669667.717126,-0.058,-0.74,1.045
1755669667.83752,-0.109,-0.854,0.271
1755669667.968931,-0.338,-0.822,-0.03
1755669668.115124,-0.046,-0.795,1.58
1755669668.253642,-0.07,-0.705,1.088
1755669668.3820102,-0.352,-0.694,-0.017
1755669668.498643,-0.128,-0.848,-0.004
1755669668.635608,-0.087,-0.834,1.481
1755669668.785845,0.038,-0.861,1.573
1755669668.91468,-0.263,-0.725,0.003
1755669669.039508,-0.031,-0.941,-0.026
1755669669.1738958,-0.012,-0.763,1.373
1755669669.2900438,0.236,-0.787,1.513
1755669669.404525,-0.307,-0.595,0.159
1755669669.524073,-0.29,-0.802,0.187
1755669669.658877,-0.176,-0.71,1.655
1755669669.776203,-0.084,-0.775,1.169
1755669669.9071832,-0.411,-0.615,-0.147
1755669670.0565472,-0.381,-0.759,0.009
1755669670.194028,0.064,-0.935,1.308
1755669670.312289,0.042,-0.907,1.47
1755669670.434306,-0.112,-0.706,0.967
1755669670.568415,-0.455,-0.612,-0.186
1755669670.701258,-0.296,-0.683,0.025
1755669670.823692,0.083,-1.084,1.72
1755669670.944564,0.006,-0.869,0.999
1755669671.056514,-0.064,-0.709,0.859
1755669671.184784,-0.511,-0.556,-0.203
1755669671.3144488,0.057,-0.769,0.055
1755669671.431256,0.02,-0.811,1.71
1755669671.552634,0.072,-0.81,1.442
1755669671.678276,-0.097,-0.739,0.219
1755669671.797447,-0.394,-0.817,-0.451
1755669671.91416,0.247,-0.933,0.641
1755669672.0338418,0.039,-0.786,1.656
1755669672.148931,-0.007,-0.903,0.653
1755669672.264378,-0.373,-0.723,-0.431
1755669672.3931708,-0.039,-0.82,1.056
1755669672.517171,-0.188,-0.75,1.49
1755669672.6273658,-0.285,-0.7,1.279
1755669672.745541,-0.393,-0.626,-0.871
1755669672.867574,-0.213,-0.67,0.647
1755669672.9849868,-0.241,-0.636,1.65
1755669673.111892,-0.173,-0.807,0.148
1755669673.2385762,-0.069,-0.953,-0.202
1755669673.3506749,-0.234,-0.639,1.547
1755669673.474624,0.014,-0.885,1.689
1755669673.597677,-0.064,-0.84,0.126
1755669673.718467,-0.222,-0.837,-0.59
1755669673.849368,0.113,-1.123,1.753
1755669673.976789,-0.056,-0.875,1.163
1755669674.090842,-0.089,-0.892,0.419
1755669674.20839,-0.391,-0.669,-0.392
1755669674.322515,0.084,-0.753,0.595
1755669674.441086,-0.092,-0.72,1.379
1755669674.5628731,-0.096,-0.716,1.054
1755669674.6752489,-0.225,-0.76,-0.822
1755669674.7858748,0.337,-0.734,0.499
1755669674.905308,0.005,-0.618,1.382
1755669675.0283678,0.128,-0.92,0.989
1755669675.14155,-0.276,-0.815,-0.384
1755669675.257797,0.056,-0.73,0.631
1755669675.379427,-0.086,-0.75,1.386
1755669675.494444,-0.024,-0.697,1.122
1755669675.61855,-0.187,-0.863,-1.09
1755669675.739535,0.564,-1.15,1.139
1755669675.864628,-0.026,-0.714,1.418
1755669675.983729,-0.073,-0.861,-0.08
1755669676.099935,0.459,-0.935,-0.198
1755669676.2384791,-0.004,-0.361,1.8
1755669676.368822,0.108,-0.902,0.223
1755669676.492553,0.018,-1.042,-0.88
1755669676.61703,0.154,-1.046,2.693
1755669676.746763,-0.077,-0.919,-0.143
1755669676.89639,-0.052,-0.885,0.449
1755669677.014364,-0.204,-0.637,1.241
1755669677.1340108,-0.051,-0.843,0.14
1755669677.268729,0.206,-1.03,-0.643
1755669677.423223,0.083,-0.609,2.789
1755669677.539171,0.106,-0.92,0.085
1755669677.6521118,0.077,-1.016,-0.704
1755669677.768438,0.191,-0.54,3.886
1755669677.878135,-0.099,-1.03,-0.069
1755669677.9992902,0.219,-0.845,-0.123
1755669678.116097,0.243,-0.447,3.377
1755669678.235193,0.024,-0.913,0.185
1755669678.353942,0.289,-0.957,-0.453
1755669678.46819,0.47,-0.435,3.239
1755669678.590841,0.0,-0.895,-0.354
1755669678.7133682,0.465,-0.849,-0.464
1755669678.8339531,0.187,-0.373,2.615
1755669678.95254,0.216,-0.795,0.521
1755669679.0781848,-0.044,-1.098,-1.092
1755669679.197819,0.35,-0.889,2.453
1755669679.309672,0.538,-0.968,0.786
1755669679.4226072,-0.176,-0.944,-1.0
1755669679.548386,0.638,-1.03,1.137
1755669679.663358,0.141,-0.752,0.935
1755669679.783875,-0.151,-0.869,-0.455
1755669679.904885,0.742,-1.124,-0.308
1755669680.0185971,0.166,-0.592,1.333
1755669680.1457222,0.334,-0.886,0.787
1755669680.270625,-0.459,-0.77,-0.969
1755669680.390785,0.437,-1.38,2.907
1755669680.50971,-0.062,-0.989,0.563
1755669680.635787,-0.382,-0.795,-0.115
1755669680.768448,-0.228,-0.64,1.218
1755669680.91122,-0.169,-0.746,0.699
1755669681.022872,-0.165,-0.831,0.529
1755669681.142207,-0.208,-0.833,0.49
1755669681.263273,-0.243,-0.905,0.415
1755669681.373663,-0.264,-0.936,0.315
1755669681.4995148,-0.301,-0.953,0.22
1755669681.6124349,-0.325,-0.948,0.15
1755669681.741686,-0.368,-0.911,0.024
1755669681.864245,-0.401,-0.901,-0.047
1755669681.9978418,-0.435,-1.074,0.13
1755669682.113034,-0.458,-0.947,0.27
1755669682.221497,-0.599,-0.898,0.385
1755669682.335387,-0.848,-0.075,0.367
1755669682.449961,-0.902,0.189,0.299
1755669682.584854,-0.964,-0.054,0.075
1755669682.696704,-0.913,-0.297,-0.211
1755669682.841342,-0.828,-0.538,-0.331
1755669682.974184,-0.903,-0.313,-0.269
1755669683.091866,-0.651,-0.029,-0.763
1755669683.208294,-0.638,0.01,-0.751
1755669683.3292868,-0.534,0.224,-0.849
1755669683.453849,-0.492,0.245,-0.813
1755669683.574042,-0.547,0.222,-0.818
1755669683.688353,-0.611,0.19,-0.767
1755669683.798553,-0.791,0.128,-0.631
1755669683.9178271,-0.99,0.062,0.081
1755669684.035774,-1.056,0.396,-0.091
1755669684.167638,-0.897,0.218,0.22
1755669684.289511,-0.834,0.14,0.311
1755669684.4104168,-0.812,-0.151,0.405
1755669684.521385,-0.885,-0.128,0.383
1755669684.6328268,-0.962,-0.452,0.085
1755669684.754494,-1.0,-0.112,0.321
1755669684.863958,-0.884,0.015,-0.225
1755669684.9760902,-0.966,-0.065,0.251
1755669685.093062,-0.833,-0.06,0.231
1755669685.227975,-0.736,-0.252,0.61
1755669685.3454342,-0.53,-0.389,0.839
1755669685.482306,-0.49,-0.396,0.896
1755669685.603356,-0.505,-0.283,0.959
1755669685.717911,-0.792,-0.327,-0.265
1755669685.848501,-0.773,-0.259,0.356
1755669685.9600189,-0.669,-0.208,0.791
1755669686.081325,-0.629,-0.257,0.689
1755669686.197367,-0.556,-0.126,1.026
1755669686.313555,-0.721,-0.175,0.972
1755669686.433269,-0.85,-0.332,0.282
1755669686.549671,-0.928,-0.495,-0.197
1755669686.661486,-0.786,-0.015,0.267
1755669686.770877,-0.883,0.11,0.366
1755669686.88187,-0.842,0.007,0.771
1755669687.021257,-0.788,-0.086,0.851
1755669687.137583,-1.099,-0.06,0.56
1755669687.263496,-0.857,0.141,-0.026
1755669687.379473,-0.869,0.056,-0.151
1755669687.492116,-0.861,0.151,0.359
1755669687.6245608,-0.817,0.175,0.855
1755669687.7819252,-0.977,0.052,0.219
1755669687.900482,-0.88,0.076,-0.202
1755669688.0285308,-1.03,-0.11,-0.121
1755669688.146728,-1.057,-0.084,-0.1
1755669688.264651,-0.92,-0.091,-0.358
1755669688.3764212,-0.843,-0.203,-0.693
1755669688.499676,-0.976,0.074,0.157
1755669688.610479,-1.005,-0.102,0.244
1755669688.719588,-0.865,-0.137,-0.495
1755669688.839075,-0.868,-0.166,-0.554
1755669688.967957,-0.838,0.0,0.021
1755669689.089222,-1.088,-0.427,0.547
1755669689.2042098,-0.87,-0.161,0.555
1755669689.353618,-0.668,-0.138,0.427
1755669689.468676,-0.252,-0.783,0.641
1755669689.679893,0.116,-0.78,0.822
1755669689.815401,0.234,-0.74,0.9
1755669689.934504,0.309,-0.376,0.947
1755669690.060142,0.39,-0.334,1.07
1755669690.184122,0.277,-0.146,1.184
1755669690.3019352,0.182,-0.01,0.978
1755669690.4246,0.183,0.017,0.958
1755669690.559486,0.193,0.035,1.008
1755669690.7211,0.223,0.104,1.097
1755669690.839797,0.232,0.012,0.968
1755669690.9777129,0.218,0.024,1.027
1755669691.0931048,0.214,-0.012,0.982
1755669691.21084,0.21,-0.047,0.974
1755669691.322908,0.244,-0.075,1.034
1755669691.446738,0.258,-0.056,1.019
1755669691.5665762,0.252,-0.09,0.988
1755669691.680341,0.258,-0.083,0.947
1755669691.818445,0.241,-0.097,0.969
1755669691.958007,0.272,-0.136,1.035
1755669692.098114,0.272,-0.146,0.978
1755669692.217251,0.282,-0.137,0.988
1755669692.335447,0.282,-0.152,0.972
1755669692.457814,0.274,-0.137,0.964
1755669694.10321,0.023,-0.276,1.203
1755681059.9233868,-0.013,-0.188,-0.985
1755681060.585603,-0.011,-0.189,-0.982
1755681060.7168589,-0.017,-0.191,-0.983
1755681060.850422,-0.01,-0.193,-0.978
1755681060.979584,-0.011,-0.189,-0.982
1755681061.116868,-0.013,-0.194,-0.986
1755681061.243371,-0.004,-0.183,-0.987
1755681061.383374,-0.01,-0.19,-0.981
1755681061.516736,-0.01,-0.192,-0.982
1755681061.648458,-0.009,-0.189,-0.982
1755681061.773558,-0.01,-0.191,-0.983
1755681061.89823,-0.01,-0.188,-0.982
1755681062.014915,-0.01,-0.19,-0.983
1755681062.1425002,-0.011,-0.192,-0.982
1755681062.2662988,-0.01,-0.188,-0.983
1755681062.393991,-0.01,-0.189,-0.984
1755681062.522683,-0.012,-0.194,-0.979
1755681062.6541388,-0.01,-0.19,-0.981
1755681062.795161,-0.01,-0.187,-0.983
1755681062.9266272,-0.009,-0.188,-0.982
1755681063.052233,-0.006,-0.193,-0.983
1755681063.17504,-0.017,-0.188,-0.984
1755681063.297175,-0.013,-0.193,-0.982
1755681063.4230452,-0.01,-0.189,-0.983
1755681063.555579,-0.01,-0.19,-0.982
1755681063.68408,-0.012,-0.191,-0.982
1755681063.8068328,-0.011,-0.192,-0.982
1755681063.927308,-0.011,-0.189,-0.983
1755681064.05495,-0.012,-0.191,-0.982
1755681064.181078,-0.011,-0.188,-0.982
1755681064.3042922,-0.014,-0.192,-0.982
1755681064.42496,-0.012,-0.189,-0.983
1755681064.546956,-0.011,-0.19,-0.982
1755681064.673728,-0.012,-0.188,-0.982
1755681064.793594,-0.012,-0.19,-0.983
1755681064.925816,-0.011,-0.19,-0.982
1755681065.058952,-0.012,-0.191,-0.982
1755681065.444145,-0.012,-0.19,-0.982
1755681065.570692,-0.012,-0.19,-0.982
1755681065.699341,-0.013,-0.191,-0.982
1755681065.835265,-0.011,-0.19,-0.983
1755681065.9608488,-0.012,-0.191,-0.982
1755681066.0829482,-0.013,-0.19,-0.982
1755681066.2090209,-0.012,-0.19,-0.983
1755681066.327362,-0.012,-0.19,-0.981
1755681066.4709451,-0.012,-0.19,-0.983
1755681066.598135,-0.012,-0.188,-0.983
1755681066.718168,-0.012,-0.191,-0.982
1755681066.841656,-0.012,-0.19,-0.982
1755681066.961218,-0.011,-0.189,-0.982
1755681067.08862,-0.012,-0.19,-0.981
1755681067.214188,-0.011,-0.189,-0.982
1755681067.332355,-0.012,-0.189,-0.982
1755681067.45645,-0.013,-0.19,-0.982
1755681067.5811698,-0.012,-0.19,-0.982
1755681067.708756,-0.012,-0.189,-0.982
1755681067.839414,-0.011,-0.19,-0.982
1755681067.9543092,-0.012,-0.19,-0.982
1755681068.077884,-0.011,-0.191,-0.982
1755681068.202454,-0.012,-0.19,-0.981
1755681068.32798,-0.012,-0.19,-0.982
1755681068.453797,-0.012,-0.19,-0.983
1755681068.574882,-0.012,-0.191,-0.982
1755681068.693802,-0.013,-0.19,-0.982
1755681068.815232,-0.012,-0.19,-0.982
1755681068.964086,-0.013,-0.19,-0.981
1755681069.088445,-0.012,-0.188,-0.982
1755681069.212367,-0.012,-0.19,-0.981
1755681069.3403132,-0.013,-0.189,-0.982
1755681069.461334,-0.012,-0.189,-0.982
1755681069.577725,-0.017,-0.155,-0.994
1755681069.705771,-0.016,-0.168,-0.984
1755681069.831603,-0.029,-0.115,-0.994
1755681069.945259,-0.032,-0.126,-0.986
1755681070.063403,-0.067,-0.195,-0.956
1755681070.184468,-0.006,-0.19,-0.986
1755681070.309462,0.004,-0.229,-0.979
1755681070.435837,0.013,-0.239,-0.959
1755681070.564936,0.005,-0.214,-0.977
1755681070.6864371,0.012,-0.23,-0.975
1755681070.815758,0.039,-0.363,-0.962
1755681070.933871,0.037,-0.271,-0.948
1755681071.058692,0.021,-0.245,-0.968
1755681071.194051,0.009,-0.216,-0.998
1755681071.3190138,0.011,-0.224,-0.97
1755681071.450943,0.011,-0.221,-0.975
1755681071.581423,0.011,-0.219,-0.976
1755681071.706649,0.011,-0.22,-0.976
1755681071.8242052,0.012,-0.219,-0.975
1755681071.9457762,0.012,-0.219,-0.976
1755681072.0715468,0.011,-0.219,-0.977
1755681072.1990972,0.012,-0.219,-0.976
1755681072.308995,0.01,-0.22,-0.976
1755681072.431433,0.012,-0.218,-0.976
1755681072.55759,0.01,-0.22,-0.976
1755681072.68691,0.01,-0.219,-0.977
1755681072.808001,0.011,-0.219,-0.976
1755681072.935908,0.011,-0.219,-0.977
1755681073.0593522,0.011,-0.219,-0.976
1755681073.1843991,0.012,-0.219,-0.977
1755681073.310227,0.011,-0.22,-0.976
1755681073.439685,0.01,-0.22,-0.977
1755681073.574367,0.01,-0.219,-0.976
1755681073.6898172,0.011,-0.22,-0.976
1755681073.80786,0.012,-0.219,-0.977
1755681073.9257238,0.011,-0.219,-0.976
1755681074.048471,0.011,-0.219,-0.976
1755681074.1701188,0.011,-0.219,-0.976
1755681074.294059,0.01,-0.22,-0.976
1755681074.412745,0.011,-0.219,-0.976
1755681074.5323782,0.01,-0.22,-0.976
1755681074.650242,0.011,-0.219,-0.976
1755681074.774854,0.011,-0.219,-0.976
1755681074.895509,0.012,-0.219,-0.976
1755681075.027508,0.012,-0.219,-0.976
1755681075.146228,0.011,-0.218,-0.977
1755681075.2761972,0.012,-0.219,-0.977
1755681075.409784,0.011,-0.219,-0.976
1755681075.523743,0.01,-0.219,-0.976
1755681075.649293,0.012,-0.219,-0.976
1755681075.7829702,0.011,-0.219,-0.977
1755681075.90545,0.011,-0.219,-0.975
1755681076.019868,0.011,-0.218,-0.976
1755681076.142467,0.011,-0.219,-0.977
1755681076.263053,0.012,-0.218,-0.976
1755681076.376747,0.011,-0.219,-0.977
1755681076.5023391,0.012,-0.219,-0.977
1755681076.619277,0.011,-0.22,-0.977
1755681076.7437818,0.01,-0.22,-0.976
1755681076.859712,0.011,-0.219,-0.976
1755681076.98324,0.01,-0.219,-0.976
1755681077.1101649,0.011,-0.219,-0.977
1755681077.24473,0.011,-0.22,-0.977
1755681077.3662112,0.012,-0.216,-0.978
1755681077.477514,0.011,-0.22,-0.976
1755681077.601564,0.012,-0.217,-0.977
1755681077.722791,0.012,-0.216,-0.976
1755681077.8507,0.01,-0.222,-0.976
1755681077.96687,0.012,-0.216,-0.978
1755681078.083306,0.01,-0.225,-0.974
1755681078.211613,0.014,-0.212,-0.977
1755681078.348076,0.009,-0.225,-0.977
1755681078.482765,0.007,-0.231,-0.976
1755681078.596212,0.019,-0.191,-0.979
1755681078.721057,0.008,-0.228,-0.974
1755681078.83962,0.012,-0.217,-0.977
1755681078.960244,0.01,-0.224,-0.976
1755681079.087279,0.012,-0.214,-0.977
1755681079.208864,0.011,-0.222,-0.976
1755681079.32981,0.014,-0.209,-0.973
1755681079.444444,0.016,-0.221,-0.976
1755681079.5684118,0.01,-0.224,-0.977
1755681079.6847491,0.014,-0.209,-0.978
1755681079.8069718,0.012,-0.216,-0.982
1755681079.92697,0.012,-0.222,-0.971
1755681080.0569868,0.015,-0.215,-0.975
1755681080.1772249,0.012,-0.22,-0.977
1755681080.2888188,0.013,-0.22,-0.978
1755681080.415788,-0.001,-0.225,-0.984
1755681080.542484,0.001,-0.214,-0.975
1755681080.6596942,0.03,-0.185,-0.976
1755681080.790889,0.016,-0.249,-0.975
1755681080.913125,0.022,-0.223,-0.967
1755681081.0452511,0.026,-0.195,-0.982
1755681081.177928,0.027,-0.222,-0.975
1755681081.29529,0.024,-0.214,-0.974
1755681081.421058,0.024,-0.215,-0.978
1755681081.543906,0.024,-0.211,-0.977
1755681081.670203,0.024,-0.217,-0.976
1755681081.797924,0.024,-0.214,-0.978
1755681081.9224582,0.025,-0.211,-0.977
1755681082.0473971,0.025,-0.212,-0.978
1755681082.158414,0.026,-0.212,-0.978
1755681082.274872,0.025,-0.213,-0.976
1755681082.407984,0.025,-0.213,-0.977
1755681082.533366,0.025,-0.212,-0.977
1755681082.652715,0.024,-0.214,-0.976
1755681082.772007,0.025,-0.213,-0.977
1755681082.894225,0.025,-0.213,-0.978
1755681083.009948,0.024,-0.213,-0.976
1755681083.1228302,0.024,-0.212,-0.977
1755681083.250017,0.024,-0.213,-0.977
1755681083.359311,0.025,-0.213,-0.977
1755681083.484357,0.026,-0.214,-0.978
1755681083.599496,0.024,-0.213,-0.977
1755681083.72211,0.025,-0.212,-0.978
1755681083.8426602,0.026,-0.213,-0.978
1755681083.962125,0.025,-0.213,-0.978
1755681084.0720131,0.025,-0.212,-0.978
1755681084.1946292,0.025,-0.212,-0.979
1755681084.313526,0.026,-0.213,-0.979
1755681084.420945,0.025,-0.213,-0.978
1755681084.5368,0.026,-0.213,-0.977
1755681084.666929,0.026,-0.213,-0.978
1755681084.783539,0.025,-0.212,-0.978
1755681084.8954,0.025,-0.213,-0.978
1755681085.015596,0.024,-0.213,-0.977
1755681085.14447,0.026,-0.212,-0.978
1755681085.269187,0.026,-0.213,-0.977
1755681085.390672,0.024,-0.212,-0.978
1755681085.504236,0.025,-0.213,-0.978
1755681085.6259751,0.024,-0.213,-0.979
1755681085.7439842,0.024,-0.213,-0.978
1755681085.858852,0.025,-0.213,-0.978
1755681085.986977,0.025,-0.213,-0.978
1755681086.094968,0.026,-0.213,-0.978
1755681086.2200892,0.025,-0.213,-0.978
1755681086.3430882,0.025,-0.212,-0.978
1755681086.468257,0.024,-0.213,-0.979
1755681086.58472,0.025,-0.213,-0.979
1755681086.963341,0.025,-0.212,-0.979
1755681087.090027,0.026,-0.212,-0.977
1755681087.220165,0.025,-0.213,-0.978
1755681087.3471391,0.026,-0.212,-0.978
1755681087.47131,0.025,-0.212,-0.978
1755681087.596652,0.025,-0.212,-0.979
1755681087.718596,0.025,-0.211,-0.979
1755681087.843936,0.024,-0.211,-0.978
1755681087.966798,0.024,-0.211,-0.978
1755681088.086079,0.026,-0.212,-0.979
1755681088.2170188,0.025,-0.212,-0.978
1755681088.342159,0.025,-0.213,-0.978
1755681088.467065,0.025,-0.213,-0.978
1755681088.6086311,0.025,-0.212,-0.979
1755681088.7326798,0.025,-0.212,-0.978
1755681088.863425,0.025,-0.212,-0.978
1755681088.982054,0.025,-0.212,-0.978
1755681089.1080031,0.024,-0.213,-0.977
1755681089.2331,0.025,-0.212,-0.978
1755681089.350983,0.023,-0.212,-0.978
1755681089.464247,0.025,-0.212,-0.978
1755681089.580212,0.025,-0.211,-0.979
1755681089.703157,0.025,-0.212,-0.978
1755681089.8300018,0.026,-0.213,-0.978
1755681089.940932,0.024,-0.212,-0.977
1755681090.066604,0.025,-0.212,-0.978
1755681090.193949,0.026,-0.212,-0.978
1755681090.321393,0.024,-0.211,-0.977
1755681090.445072,0.025,-0.212,-0.977
1755681090.574002,0.025,-0.212,-0.978
1755681090.708822,0.026,-0.213,-0.979
1755681090.8323982,0.024,-0.212,-0.978
1755681090.958346,0.025,-0.213,-0.977
1755681091.091973,0.025,-0.211,-0.978
1755681091.215877,0.025,-0.212,-0.978
1755681091.334164,0.025,-0.212,-0.978
1755681091.449001,0.025,-0.212,-0.978
1755681091.576326,0.026,-0.212,-0.978
1755681091.686494,0.026,-0.212,-0.977
1755681091.81824,0.025,-0.212,-0.978
1755681091.935816,0.026,-0.212,-0.978
1755681092.055126,0.025,-0.212,-0.978
1755681092.1742668,0.026,-0.212,-0.977
1755681092.3008971,0.026,-0.212,-0.978
1755681092.4225988,0.025,-0.212,-0.979
1755681092.5431628,0.025,-0.211,-0.978
1755681092.671853,0.026,-0.213,-0.978
1755681092.780038,0.025,-0.212,-0.977
1755681092.8957691,0.025,-0.211,-0.978
1755681093.027602,0.025,-0.211,-0.976
1755681093.140798,0.025,-0.212,-0.978
1755681093.259299,0.026,-0.212,-0.978
1755681093.382613,0.025,-0.211,-0.977
1755681093.5005162,0.025,-0.212,-0.978
1755681093.61329,0.026,-0.212,-0.978
1755681093.73198,0.025,-0.212,-0.978
1755681093.8402948,0.025,-0.212,-0.978
1755681093.953532,0.025,-0.211,-0.977
1755681094.064302,0.026,-0.212,-0.977
1755681094.187058,0.025,-0.212,-0.977
1755681094.302446,0.025,-0.212,-0.978
1755681094.427794,0.025,-0.211,-0.978
1755681094.558654,0.025,-0.212,-0.978
1755681094.67649,0.025,-0.211,-0.977
1755681094.7946072,0.025,-0.212,-0.977
1755684192.640821,0.208,-0.829,-0.531
1755684192.957577,0.194,-0.805,-0.565
1755684193.087134,0.18,-0.778,-0.603
1755684193.210911,0.171,-0.76,-0.629
1755684193.343306,0.169,-0.757,-0.636
1755684193.4756238,0.166,-0.755,-0.64
1755684193.609035,0.144,-0.707,-0.696
1755684193.73535,0.13,-0.678,-0.727
1755684193.865594,0.116,-0.647,-0.757
1755684194.000382,0.111,-0.636,-0.766
1755684194.1281128,0.103,-0.629,-0.772
1755684194.2606971,0.106,-0.622,-0.778
1755684194.3978748,0.102,-0.616,-0.784
1755684194.522697,0.1,-0.612,-0.79
1755684194.650306,0.098,-0.605,-0.793
1755684194.774507,0.093,-0.6,-0.796
1755684194.9148312,0.091,-0.594,-0.801
1755684195.0375738,0.094,-0.593,-0.804
1755684195.1658182,0.091,-0.587,-0.807
1755684195.300068,0.087,-0.58,-0.811
1755684195.432638,0.076,-0.568,-0.823
1755684195.567206,0.068,-0.563,-0.824
1755684195.690902,0.061,-0.559,-0.829
1755684195.822954,0.073,-0.555,-0.832
1755684195.953515,0.07,-0.552,-0.833
1755684196.07855,0.069,-0.547,-0.835
1755684196.2045598,0.068,-0.543,-0.839
1755684196.3347552,0.066,-0.541,-0.841
1755684196.460535,0.066,-0.539,-0.842
1755684196.5946722,0.064,-0.536,-0.844
1755684196.7261388,0.063,-0.533,-0.846
1755684196.866631,0.063,-0.531,-0.848
1755684196.99568,0.061,-0.527,-0.848
1755684197.1248372,0.06,-0.526,-0.85
1755684197.241518,0.059,-0.523,-0.852
1755684197.370123,0.058,-0.521,-0.854
1755684197.496382,0.058,-0.519,-0.855
1755684197.6432068,0.056,-0.518,-0.855
1755684197.765951,0.056,-0.516,-0.857
1755684197.891891,0.055,-0.514,-0.859
1755684198.0193331,0.054,-0.512,-0.859
1755684198.150041,0.054,-0.51,-0.861
1755684198.272646,0.053,-0.508,-0.861
1755684198.41591,0.052,-0.507,-0.861
1755684198.543089,0.052,-0.505,-0.863
1755684198.699471,0.052,-0.504,-0.865
1755684198.827637,0.051,-0.502,-0.865
1755684198.9675038,0.05,-0.501,-0.867
1755684199.098816,0.051,-0.499,-0.867
1755684199.242452,0.051,-0.5,-0.866
1755684199.3865018,0.051,-0.5,-0.866
1755684199.527542,0.049,-0.499,-0.867
1755684199.656044,0.05,-0.499,-0.868
1755684199.786036,0.049,-0.499,-0.868
1755684199.913413,0.049,-0.499,-0.867
1755684200.047029,0.047,-0.499,-0.868
1755684200.175898,0.049,-0.498,-0.869
1755684200.322551,0.048,-0.499,-0.868
1755684200.445903,0.048,-0.498,-0.868
1755684200.580639,0.048,-0.497,-0.868
1755684200.7105112,0.047,-0.498,-0.869
1755684200.838457,0.047,-0.498,-0.869
1755684200.96047,0.048,-0.497,-0.869
1755684201.087863,0.048,-0.497,-0.869
1755684201.209564,0.049,-0.497,-0.868
1755684201.3407848,0.047,-0.497,-0.869
1755684201.465327,0.046,-0.498,-0.868
1755684201.603211,0.047,-0.497,-0.869
1755684201.726951,0.047,-0.497,-0.869
1755684201.850615,0.047,-0.497,-0.869
1755684201.972877,0.046,-0.497,-0.869
1755684202.0938082,0.046,-0.497,-0.869
1755684202.216462,0.046,-0.497,-0.868
1755684202.342987,0.046,-0.497,-0.869
1755684202.467263,0.045,-0.497,-0.869
1755684202.592321,0.047,-0.496,-0.869
1755684202.736116,0.047,-0.496,-0.87
1755684202.868027,0.046,-0.496,-0.87
